Created as New Dataset,Sample 044 By irlear Date Thursday, January 08 2009
cm-1,A
4000.00,0.0185
3999.75,0.0185
3999.50,0.0184
3999.25,0.0183
3999.00,0.0183
3998.75,0.0182
3998.50,0.0181
3998.25,0.0182
3998.00,0.0184
3997.75,0.0186
3997.50,0.0188
3997.25,0.0189
3997.00,0.0188
3996.75,0.0186
3996.50,0.0184
3996.25,0.0182
3996.00,0.0181
3995.75,0.0181
3995.50,0.0183
3995.25,0.0184
3995.00,0.0186
3994.75,0.0187
3994.50,0.0188
3994.25,0.0189
3994.00,0.0189
3993.75,0.0190
3993.50,0.0189
3993.25,0.0189
3993.00,0.0188
3992.75,0.0186
3992.50,0.0185
3992.25,0.0185
3992.00,0.0186
3991.75,0.0187
3991.50,0.0187
3991.25,0.0187
3991.00,0.0187
3990.75,0.0186
3990.50,0.0185
3990.25,0.0184
3990.00,0.0184
3989.75,0.0185
3989.50,0.0186
3989.25,0.0188
3989.00,0.0189
3988.75,0.0190
3988.50,0.0189
3988.25,0.0188
3988.00,0.0186
3987.75,0.0184
3987.50,0.0183
3987.25,0.0182
3987.00,0.0182
3986.75,0.0182
3986.50,0.0183
3986.25,0.0184
3986.00,0.0185
3985.75,0.0185
3985.50,0.0186
3985.25,0.0185
3985.00,0.0185
3984.75,0.0184
3984.50,0.0184
3984.25,0.0183
3984.00,0.0183
3983.75,0.0183
3983.50,0.0182
3983.25,0.0183
3983.00,0.0183
3982.75,0.0184
3982.50,0.0186
3982.25,0.0188
3982.00,0.0189
3981.75,0.0189
3981.50,0.0189
3981.25,0.0188
3981.00,0.0187
3980.75,0.0187
3980.50,0.0187
3980.25,0.0187
3980.00,0.0187
3979.75,0.0186
3979.50,0.0185
3979.25,0.0184
3979.00,0.0182
3978.75,0.0182
3978.50,0.0184
3978.25,0.0185
3978.00,0.0187
3977.75,0.0188
3977.50,0.0188
3977.25,0.0187
3977.00,0.0186
3976.75,0.0185
3976.50,0.0184
3976.25,0.0184
3976.00,0.0184
3975.75,0.0185
3975.50,0.0187
3975.25,0.0188
3975.00,0.0188
3974.75,0.0188
3974.50,0.0187
3974.25,0.0186
3974.00,0.0186
3973.75,0.0186
3973.50,0.0186
3973.25,0.0187
3973.00,0.0187
3972.75,0.0187
3972.50,0.0187
3972.25,0.0186
3972.00,0.0185
3971.75,0.0185
3971.50,0.0184
3971.25,0.0184
3971.00,0.0184
3970.75,0.0184
3970.50,0.0183
3970.25,0.0183
3970.00,0.0182
3969.75,0.0182
3969.50,0.0181
3969.25,0.0181
3969.00,0.0182
3968.75,0.0183
3968.50,0.0183
3968.25,0.0184
3968.00,0.0184
3967.75,0.0185
3967.50,0.0185
3967.25,0.0186
3967.00,0.0186
3966.75,0.0186
3966.50,0.0186
3966.25,0.0186
3966.00,0.0187
3965.75,0.0187
3965.50,0.0187
3965.25,0.0187
3965.00,0.0187
3964.75,0.0187
3964.50,0.0187
3964.25,0.0187
3964.00,0.0187
3963.75,0.0187
3963.50,0.0187
3963.25,0.0187
3963.00,0.0186
3962.75,0.0185
3962.50,0.0186
3962.25,0.0187
3962.00,0.0189
3961.75,0.0191
3961.50,0.0191
3961.25,0.0190
3961.00,0.0188
3960.75,0.0185
3960.50,0.0184
3960.25,0.0182
3960.00,0.0182
3959.75,0.0183
3959.50,0.0184
3959.25,0.0186
3959.00,0.0187
3958.75,0.0187
3958.50,0.0187
3958.25,0.0186
3958.00,0.0185
3957.75,0.0185
3957.50,0.0184
3957.25,0.0184
3957.00,0.0184
3956.75,0.0184
3956.50,0.0185
3956.25,0.0185
3956.00,0.0185
3955.75,0.0185
3955.50,0.0185
3955.25,0.0185
3955.00,0.0186
3954.75,0.0187
3954.50,0.0188
3954.25,0.0188
3954.00,0.0187
3953.75,0.0186
3953.50,0.0185
3953.25,0.0184
3953.00,0.0184
3952.75,0.0184
3952.50,0.0185
3952.25,0.0187
3952.00,0.0188
3951.75,0.0189
3951.50,0.0189
3951.25,0.0188
3951.00,0.0187
3950.75,0.0186
3950.50,0.0185
3950.25,0.0184
3950.00,0.0182
3949.75,0.0181
3949.50,0.0181
3949.25,0.0183
3949.00,0.0185
3948.75,0.0187
3948.50,0.0188
3948.25,0.0189
3948.00,0.0189
3947.75,0.0189
3947.50,0.0188
3947.25,0.0187
3947.00,0.0185
3946.75,0.0183
3946.50,0.0183
3946.25,0.0183
3946.00,0.0184
3945.75,0.0186
3945.50,0.0186
3945.25,0.0187
3945.00,0.0187
3944.75,0.0186
3944.50,0.0186
3944.25,0.0186
3944.00,0.0187
3943.75,0.0188
3943.50,0.0188
3943.25,0.0188
3943.00,0.0187
3942.75,0.0187
3942.50,0.0187
3942.25,0.0187
3942.00,0.0188
3941.75,0.0188
3941.50,0.0189
3941.25,0.0189
3941.00,0.0188
3940.75,0.0188
3940.50,0.0187
3940.25,0.0186
3940.00,0.0185
3939.75,0.0184
3939.50,0.0184
3939.25,0.0184
3939.00,0.0184
3938.75,0.0185
3938.50,0.0186
3938.25,0.0188
3938.00,0.0189
3937.75,0.0189
3937.50,0.0189
3937.25,0.0187
3937.00,0.0185
3936.75,0.0184
3936.50,0.0182
3936.25,0.0182
3936.00,0.0182
3935.75,0.0184
3935.50,0.0186
3935.25,0.0187
3935.00,0.0188
3934.75,0.0188
3934.50,0.0187
3934.25,0.0186
3934.00,0.0186
3933.75,0.0186
3933.50,0.0186
3933.25,0.0186
3933.00,0.0186
3932.75,0.0187
3932.50,0.0188
3932.25,0.0188
3932.00,0.0188
3931.75,0.0187
3931.50,0.0187
3931.25,0.0188
3931.00,0.0188
3930.75,0.0189
3930.50,0.0190
3930.25,0.0191
3930.00,0.0191
3929.75,0.0190
3929.50,0.0188
3929.25,0.0186
3929.00,0.0185
3928.75,0.0184
3928.50,0.0184
3928.25,0.0184
3928.00,0.0184
3927.75,0.0184
3927.50,0.0184
3927.25,0.0184
3927.00,0.0184
3926.75,0.0184
3926.50,0.0185
3926.25,0.0185
3926.00,0.0184
3925.75,0.0184
3925.50,0.0184
3925.25,0.0185
3925.00,0.0185
3924.75,0.0185
3924.50,0.0185
3924.25,0.0186
3924.00,0.0187
3923.75,0.0188
3923.50,0.0189
3923.25,0.0190
3923.00,0.0191
3922.75,0.0191
3922.50,0.0190
3922.25,0.0188
3922.00,0.0185
3921.75,0.0182
3921.50,0.0181
3921.25,0.0181
3921.00,0.0183
3920.75,0.0185
3920.50,0.0187
3920.25,0.0188
3920.00,0.0189
3919.75,0.0188
3919.50,0.0187
3919.25,0.0187
3919.00,0.0187
3918.75,0.0188
3918.50,0.0188
3918.25,0.0187
3918.00,0.0187
3917.75,0.0186
3917.50,0.0186
3917.25,0.0187
3917.00,0.0187
3916.75,0.0187
3916.50,0.0187
3916.25,0.0187
3916.00,0.0187
3915.75,0.0188
3915.50,0.0189
3915.25,0.0189
3915.00,0.0188
3914.75,0.0186
3914.50,0.0185
3914.25,0.0184
3914.00,0.0184
3913.75,0.0183
3913.50,0.0183
3913.25,0.0184
3913.00,0.0184
3912.75,0.0185
3912.50,0.0186
3912.25,0.0186
3912.00,0.0186
3911.75,0.0186
3911.50,0.0187
3911.25,0.0187
3911.00,0.0188
3910.75,0.0188
3910.50,0.0187
3910.25,0.0187
3910.00,0.0187
3909.75,0.0187
3909.50,0.0187
3909.25,0.0186
3909.00,0.0185
3908.75,0.0185
3908.50,0.0185
3908.25,0.0185
3908.00,0.0185
3907.75,0.0185
3907.50,0.0185
3907.25,0.0186
3907.00,0.0186
3906.75,0.0187
3906.50,0.0186
3906.25,0.0186
3906.00,0.0186
3905.75,0.0187
3905.50,0.0187
3905.25,0.0186
3905.00,0.0186
3904.75,0.0186
3904.50,0.0188
3904.25,0.0191
3904.00,0.0195
3903.75,0.0196
3903.50,0.0196
3903.25,0.0195
3903.00,0.0195
3902.75,0.0195
3902.50,0.0196
3902.25,0.0198
3902.00,0.0199
3901.75,0.0198
3901.50,0.0195
3901.25,0.0193
3901.00,0.0192
3900.75,0.0191
3900.50,0.0190
3900.25,0.0190
3900.00,0.0189
3899.75,0.0189
3899.50,0.0189
3899.25,0.0189
3899.00,0.0190
3898.75,0.0190
3898.50,0.0190
3898.25,0.0189
3898.00,0.0188
3897.75,0.0187
3897.50,0.0187
3897.25,0.0186
3897.00,0.0185
3896.75,0.0184
3896.50,0.0184
3896.25,0.0184
3896.00,0.0185
3895.75,0.0187
3895.50,0.0188
3895.25,0.0189
3895.00,0.0190
3894.75,0.0190
3894.50,0.0190
3894.25,0.0189
3894.00,0.0188
3893.75,0.0187
3893.50,0.0186
3893.25,0.0185
3893.00,0.0185
3892.75,0.0185
3892.50,0.0186
3892.25,0.0186
3892.00,0.0187
3891.75,0.0189
3891.50,0.0191
3891.25,0.0192
3891.00,0.0192
3890.75,0.0191
3890.50,0.0191
3890.25,0.0191
3890.00,0.0191
3889.75,0.0191
3889.50,0.0191
3889.25,0.0190
3889.00,0.0188
3888.75,0.0186
3888.50,0.0185
3888.25,0.0183
3888.00,0.0183
3887.75,0.0183
3887.50,0.0185
3887.25,0.0186
3887.00,0.0188
3886.75,0.0189
3886.50,0.0191
3886.25,0.0192
3886.00,0.0193
3885.75,0.0193
3885.50,0.0192
3885.25,0.0190
3885.00,0.0189
3884.75,0.0189
3884.50,0.0188
3884.25,0.0188
3884.00,0.0187
3883.75,0.0187
3883.50,0.0187
3883.25,0.0187
3883.00,0.0189
3882.75,0.0190
3882.50,0.0191
3882.25,0.0190
3882.00,0.0190
3881.75,0.0189
3881.50,0.0189
3881.25,0.0189
3881.00,0.0190
3880.75,0.0189
3880.50,0.0187
3880.25,0.0184
3880.00,0.0181
3879.75,0.0180
3879.50,0.0181
3879.25,0.0183
3879.00,0.0185
3878.75,0.0186
3878.50,0.0186
3878.25,0.0186
3878.00,0.0185
3877.75,0.0184
3877.50,0.0184
3877.25,0.0184
3877.00,0.0184
3876.75,0.0185
3876.50,0.0184
3876.25,0.0183
3876.00,0.0182
3875.75,0.0182
3875.50,0.0183
3875.25,0.0184
3875.00,0.0186
3874.75,0.0187
3874.50,0.0189
3874.25,0.0190
3874.00,0.0190
3873.75,0.0190
3873.50,0.0190
3873.25,0.0190
3873.00,0.0190
3872.75,0.0190
3872.50,0.0189
3872.25,0.0189
3872.00,0.0188
3871.75,0.0187
3871.50,0.0186
3871.25,0.0185
3871.00,0.0185
3870.75,0.0185
3870.50,0.0187
3870.25,0.0191
3870.00,0.0197
3869.75,0.0203
3869.50,0.0206
3869.25,0.0205
3869.00,0.0201
3868.75,0.0197
3868.50,0.0193
3868.25,0.0189
3868.00,0.0187
3867.75,0.0186
3867.50,0.0185
3867.25,0.0185
3867.00,0.0186
3866.75,0.0186
3866.50,0.0185
3866.25,0.0185
3866.00,0.0184
3865.75,0.0184
3865.50,0.0184
3865.25,0.0184
3865.00,0.0183
3864.75,0.0182
3864.50,0.0182
3864.25,0.0183
3864.00,0.0185
3863.75,0.0186
3863.50,0.0186
3863.25,0.0186
3863.00,0.0186
3862.75,0.0187
3862.50,0.0188
3862.25,0.0190
3862.00,0.0191
3861.75,0.0191
3861.50,0.0192
3861.25,0.0193
3861.00,0.0193
3860.75,0.0193
3860.50,0.0192
3860.25,0.0190
3860.00,0.0188
3859.75,0.0186
3859.50,0.0185
3859.25,0.0184
3859.00,0.0184
3858.75,0.0183
3858.50,0.0182
3858.25,0.0182
3858.00,0.0183
3857.75,0.0183
3857.50,0.0184
3857.25,0.0186
3857.00,0.0188
3856.75,0.0189
3856.50,0.0189
3856.25,0.0187
3856.00,0.0186
3855.75,0.0184
3855.50,0.0183
3855.25,0.0182
3855.00,0.0183
3854.75,0.0186
3854.50,0.0193
3854.25,0.0204
3854.00,0.0214
3853.75,0.0215
3853.50,0.0209
3853.25,0.0203
3853.00,0.0198
3852.75,0.0194
3852.50,0.0190
3852.25,0.0184
3852.00,0.0178
3851.75,0.0176
3851.50,0.0180
3851.25,0.0185
3851.00,0.0188
3850.75,0.0191
3850.50,0.0191
3850.25,0.0190
3850.00,0.0188
3849.75,0.0186
3849.50,0.0184
3849.25,0.0183
3849.00,0.0184
3848.75,0.0186
3848.50,0.0188
3848.25,0.0190
3848.00,0.0190
3847.75,0.0189
3847.50,0.0187
3847.25,0.0185
3847.00,0.0184
3846.75,0.0183
3846.50,0.0183
3846.25,0.0183
3846.00,0.0183
3845.75,0.0183
3845.50,0.0184
3845.25,0.0186
3845.00,0.0187
3844.75,0.0188
3844.50,0.0186
3844.25,0.0184
3844.00,0.0181
3843.75,0.0180
3843.50,0.0182
3843.25,0.0186
3843.00,0.0189
3842.75,0.0191
3842.50,0.0191
3842.25,0.0190
3842.00,0.0188
3841.75,0.0187
3841.50,0.0186
3841.25,0.0186
3841.00,0.0186
3840.75,0.0188
3840.50,0.0189
3840.25,0.0189
3840.00,0.0188
3839.75,0.0188
3839.50,0.0189
3839.25,0.0190
3839.00,0.0191
3838.75,0.0190
3838.50,0.0189
3838.25,0.0189
3838.00,0.0191
3837.75,0.0194
3837.50,0.0192
3837.25,0.0187
3837.00,0.0185
3836.75,0.0184
3836.50,0.0185
3836.25,0.0186
3836.00,0.0186
3835.75,0.0184
3835.50,0.0182
3835.25,0.0180
3835.00,0.0179
3834.75,0.0181
3834.50,0.0185
3834.25,0.0188
3834.00,0.0189
3833.75,0.0188
3833.50,0.0187
3833.25,0.0186
3833.00,0.0187
3832.75,0.0187
3832.50,0.0186
3832.25,0.0185
3832.00,0.0184
3831.75,0.0183
3831.50,0.0182
3831.25,0.0184
3831.00,0.0187
3830.75,0.0190
3830.50,0.0192
3830.25,0.0193
3830.00,0.0193
3829.75,0.0192
3829.50,0.0190
3829.25,0.0188
3829.00,0.0187
3828.75,0.0187
3828.50,0.0186
3828.25,0.0186
3828.00,0.0185
3827.75,0.0184
3827.50,0.0183
3827.25,0.0181
3827.00,0.0180
3826.75,0.0179
3826.50,0.0179
3826.25,0.0181
3826.00,0.0182
3825.75,0.0183
3825.50,0.0184
3825.25,0.0184
3825.00,0.0184
3824.75,0.0185
3824.50,0.0185
3824.25,0.0185
3824.00,0.0185
3823.75,0.0185
3823.50,0.0186
3823.25,0.0185
3823.00,0.0185
3822.75,0.0184
3822.50,0.0184
3822.25,0.0184
3822.00,0.0186
3821.75,0.0188
3821.50,0.0188
3821.25,0.0187
3821.00,0.0185
3820.75,0.0184
3820.50,0.0183
3820.25,0.0184
3820.00,0.0185
3819.75,0.0185
3819.50,0.0184
3819.25,0.0184
3819.00,0.0184
3818.75,0.0185
3818.50,0.0186
3818.25,0.0188
3818.00,0.0189
3817.75,0.0189
3817.50,0.0189
3817.25,0.0186
3817.00,0.0183
3816.75,0.0178
3816.50,0.0173
3816.25,0.0169
3816.00,0.0168
3815.75,0.0171
3815.50,0.0177
3815.25,0.0181
3815.00,0.0184
3814.75,0.0186
3814.50,0.0187
3814.25,0.0188
3814.00,0.0188
3813.75,0.0187
3813.50,0.0186
3813.25,0.0185
3813.00,0.0185
3812.75,0.0185
3812.50,0.0185
3812.25,0.0185
3812.00,0.0185
3811.75,0.0184
3811.50,0.0183
3811.25,0.0183
3811.00,0.0184
3810.75,0.0186
3810.50,0.0187
3810.25,0.0188
3810.00,0.0189
3809.75,0.0190
3809.50,0.0190
3809.25,0.0191
3809.00,0.0190
3808.75,0.0189
3808.50,0.0187
3808.25,0.0185
3808.00,0.0182
3807.75,0.0180
3807.50,0.0179
3807.25,0.0181
3807.00,0.0183
3806.75,0.0186
3806.50,0.0187
3806.25,0.0188
3806.00,0.0188
3805.75,0.0190
3805.50,0.0191
3805.25,0.0192
3805.00,0.0192
3804.75,0.0191
3804.50,0.0190
3804.25,0.0188
3804.00,0.0187
3803.75,0.0186
3803.50,0.0184
3803.25,0.0183
3803.00,0.0182
3802.75,0.0182
3802.50,0.0183
3802.25,0.0182
3802.00,0.0180
3801.75,0.0175
3801.50,0.0169
3801.25,0.0167
3801.00,0.0171
3800.75,0.0178
3800.50,0.0183
3800.25,0.0186
3800.00,0.0188
3799.75,0.0188
3799.50,0.0188
3799.25,0.0186
3799.00,0.0185
3798.75,0.0183
3798.50,0.0183
3798.25,0.0184
3798.00,0.0186
3797.75,0.0188
3797.50,0.0189
3797.25,0.0189
3797.00,0.0188
3796.75,0.0186
3796.50,0.0184
3796.25,0.0183
3796.00,0.0183
3795.75,0.0184
3795.50,0.0185
3795.25,0.0186
3795.00,0.0186
3794.75,0.0185
3794.50,0.0183
3794.25,0.0182
3794.00,0.0182
3793.75,0.0182
3793.50,0.0182
3793.25,0.0183
3793.00,0.0184
3792.75,0.0185
3792.50,0.0187
3792.25,0.0188
3792.00,0.0188
3791.75,0.0189
3791.50,0.0188
3791.25,0.0188
3791.00,0.0187
3790.75,0.0187
3790.50,0.0187
3790.25,0.0187
3790.00,0.0187
3789.75,0.0187
3789.50,0.0186
3789.25,0.0185
3789.00,0.0184
3788.75,0.0183
3788.50,0.0182
3788.25,0.0182
3788.00,0.0183
3787.75,0.0184
3787.50,0.0185
3787.25,0.0186
3787.00,0.0185
3786.75,0.0185
3786.50,0.0184
3786.25,0.0185
3786.00,0.0186
3785.75,0.0187
3785.50,0.0187
3785.25,0.0186
3785.00,0.0185
3784.75,0.0183
3784.50,0.0182
3784.25,0.0181
3784.00,0.0181
3783.75,0.0183
3783.50,0.0185
3783.25,0.0186
3783.00,0.0187
3782.75,0.0188
3782.50,0.0189
3782.25,0.0190
3782.00,0.0190
3781.75,0.0189
3781.50,0.0186
3781.25,0.0183
3781.00,0.0182
3780.75,0.0181
3780.50,0.0181
3780.25,0.0182
3780.00,0.0183
3779.75,0.0185
3779.50,0.0186
3779.25,0.0187
3779.00,0.0187
3778.75,0.0188
3778.50,0.0188
3778.25,0.0187
3778.00,0.0186
3777.75,0.0185
3777.50,0.0185
3777.25,0.0186
3777.00,0.0188
3776.75,0.0190
3776.50,0.0190
3776.25,0.0189
3776.00,0.0188
3775.75,0.0186
3775.50,0.0186
3775.25,0.0186
3775.00,0.0187
3774.75,0.0187
3774.50,0.0187
3774.25,0.0187
3774.00,0.0188
3773.75,0.0188
3773.50,0.0187
3773.25,0.0186
3773.00,0.0184
3772.75,0.0183
3772.50,0.0182
3772.25,0.0182
3772.00,0.0183
3771.75,0.0184
3771.50,0.0185
3771.25,0.0187
3771.00,0.0188
3770.75,0.0189
3770.50,0.0188
3770.25,0.0187
3770.00,0.0184
3769.75,0.0181
3769.50,0.0180
3769.25,0.0182
3769.00,0.0184
3768.75,0.0187
3768.50,0.0188
3768.25,0.0189
3768.00,0.0189
3767.75,0.0189
3767.50,0.0188
3767.25,0.0188
3767.00,0.0188
3766.75,0.0189
3766.50,0.0189
3766.25,0.0190
3766.00,0.0190
3765.75,0.0188
3765.50,0.0186
3765.25,0.0184
3765.00,0.0184
3764.75,0.0186
3764.50,0.0188
3764.25,0.0190
3764.00,0.0191
3763.75,0.0191
3763.50,0.0190
3763.25,0.0188
3763.00,0.0185
3762.75,0.0183
3762.50,0.0183
3762.25,0.0183
3762.00,0.0185
3761.75,0.0188
3761.50,0.0190
3761.25,0.0191
3761.00,0.0192
3760.75,0.0192
3760.50,0.0191
3760.25,0.0188
3760.00,0.0184
3759.75,0.0180
3759.50,0.0179
3759.25,0.0181
3759.00,0.0184
3758.75,0.0187
3758.50,0.0188
3758.25,0.0188
3758.00,0.0187
3757.75,0.0186
3757.50,0.0185
3757.25,0.0185
3757.00,0.0186
3756.75,0.0187
3756.50,0.0188
3756.25,0.0189
3756.00,0.0190
3755.75,0.0191
3755.50,0.0192
3755.25,0.0192
3755.00,0.0191
3754.75,0.0191
3754.50,0.0189
3754.25,0.0187
3754.00,0.0186
3753.75,0.0185
3753.50,0.0185
3753.25,0.0185
3753.00,0.0184
3752.75,0.0183
3752.50,0.0181
3752.25,0.0178
3752.00,0.0177
3751.75,0.0178
3751.50,0.0181
3751.25,0.0185
3751.00,0.0188
3750.75,0.0191
3750.50,0.0192
3750.25,0.0192
3750.00,0.0191
3749.75,0.0190
3749.50,0.0186
3749.25,0.0182
3749.00,0.0181
3748.75,0.0184
3748.50,0.0188
3748.25,0.0190
3748.00,0.0191
3747.75,0.0191
3747.50,0.0189
3747.25,0.0187
3747.00,0.0186
3746.75,0.0186
3746.50,0.0186
3746.25,0.0187
3746.00,0.0189
3745.75,0.0192
3745.50,0.0196
3745.25,0.0203
3745.00,0.0215
3744.75,0.0233
3744.50,0.0250
3744.25,0.0240
3744.00,0.0216
3743.75,0.0207
3743.50,0.0204
3743.25,0.0201
3743.00,0.0199
3742.75,0.0196
3742.50,0.0193
3742.25,0.0192
3742.00,0.0191
3741.75,0.0190
3741.50,0.0189
3741.25,0.0190
3741.00,0.0191
3740.75,0.0194
3740.50,0.0195
3740.25,0.0195
3740.00,0.0194
3739.75,0.0191
3739.50,0.0187
3739.25,0.0184
3739.00,0.0181
3738.75,0.0180
3738.50,0.0180
3738.25,0.0182
3738.00,0.0185
3737.75,0.0188
3737.50,0.0189
3737.25,0.0188
3737.00,0.0188
3736.75,0.0187
3736.50,0.0188
3736.25,0.0190
3736.00,0.0192
3735.75,0.0194
3735.50,0.0196
3735.25,0.0198
3735.00,0.0198
3734.75,0.0195
3734.50,0.0191
3734.25,0.0188
3734.00,0.0187
3733.75,0.0188
3733.50,0.0188
3733.25,0.0190
3733.00,0.0190
3732.75,0.0191
3732.50,0.0190
3732.25,0.0189
3732.00,0.0188
3731.75,0.0187
3731.50,0.0186
3731.25,0.0186
3731.00,0.0186
3730.75,0.0187
3730.50,0.0189
3730.25,0.0190
3730.00,0.0190
3729.75,0.0189
3729.50,0.0187
3729.25,0.0187
3729.00,0.0187
3728.75,0.0187
3728.50,0.0188
3728.25,0.0188
3728.00,0.0188
3727.75,0.0188
3727.50,0.0189
3727.25,0.0190
3727.00,0.0191
3726.75,0.0192
3726.50,0.0193
3726.25,0.0194
3726.00,0.0194
3725.75,0.0193
3725.50,0.0192
3725.25,0.0190
3725.00,0.0189
3724.75,0.0189
3724.50,0.0190
3724.25,0.0191
3724.00,0.0191
3723.75,0.0192
3723.50,0.0193
3723.25,0.0194
3723.00,0.0194
3722.75,0.0194
3722.50,0.0191
3722.25,0.0186
3722.00,0.0182
3721.75,0.0181
3721.50,0.0182
3721.25,0.0182
3721.00,0.0182
3720.75,0.0181
3720.50,0.0182
3720.25,0.0182
3720.00,0.0184
3719.75,0.0185
3719.50,0.0186
3719.25,0.0186
3719.00,0.0186
3718.75,0.0186
3718.50,0.0186
3718.25,0.0185
3718.00,0.0185
3717.75,0.0183
3717.50,0.0183
3717.25,0.0182
3717.00,0.0183
3716.75,0.0184
3716.50,0.0186
3716.25,0.0187
3716.00,0.0188
3715.75,0.0189
3715.50,0.0190
3715.25,0.0190
3715.00,0.0189
3714.75,0.0188
3714.50,0.0187
3714.25,0.0186
3714.00,0.0186
3713.75,0.0186
3713.50,0.0186
3713.25,0.0185
3713.00,0.0184
3712.75,0.0182
3712.50,0.0182
3712.25,0.0185
3712.00,0.0189
3711.75,0.0193
3711.50,0.0193
3711.25,0.0192
3711.00,0.0191
3710.75,0.0191
3710.50,0.0192
3710.25,0.0193
3710.00,0.0194
3709.75,0.0193
3709.50,0.0192
3709.25,0.0190
3709.00,0.0189
3708.75,0.0189
3708.50,0.0190
3708.25,0.0191
3708.00,0.0191
3707.75,0.0191
3707.50,0.0191
3707.25,0.0191
3707.00,0.0191
3706.75,0.0190
3706.50,0.0189
3706.25,0.0188
3706.00,0.0188
3705.75,0.0189
3705.50,0.0190
3705.25,0.0189
3705.00,0.0188
3704.75,0.0187
3704.50,0.0188
3704.25,0.0188
3704.00,0.0188
3703.75,0.0188
3703.50,0.0188
3703.25,0.0188
3703.00,0.0187
3702.75,0.0186
3702.50,0.0185
3702.25,0.0184
3702.00,0.0184
3701.75,0.0184
3701.50,0.0185
3701.25,0.0187
3701.00,0.0188
3700.75,0.0187
3700.50,0.0186
3700.25,0.0184
3700.00,0.0183
3699.75,0.0183
3699.50,0.0183
3699.25,0.0184
3699.00,0.0186
3698.75,0.0188
3698.50,0.0190
3698.25,0.0191
3698.00,0.0191
3697.75,0.0190
3697.50,0.0188
3697.25,0.0188
3697.00,0.0187
3696.75,0.0187
3696.50,0.0187
3696.25,0.0187
3696.00,0.0188
3695.75,0.0189
3695.50,0.0191
3695.25,0.0191
3695.00,0.0191
3694.75,0.0190
3694.50,0.0189
3694.25,0.0189
3694.00,0.0188
3693.75,0.0189
3693.50,0.0189
3693.25,0.0189
3693.00,0.0189
3692.75,0.0187
3692.50,0.0186
3692.25,0.0184
3692.00,0.0183
3691.75,0.0183
3691.50,0.0184
3691.25,0.0184
3691.00,0.0183
3690.75,0.0184
3690.50,0.0186
3690.25,0.0188
3690.00,0.0190
3689.75,0.0189
3689.50,0.0187
3689.25,0.0183
3689.00,0.0180
3688.75,0.0177
3688.50,0.0179
3688.25,0.0184
3688.00,0.0190
3687.75,0.0193
3687.50,0.0194
3687.25,0.0193
3687.00,0.0191
3686.75,0.0191
3686.50,0.0190
3686.25,0.0188
3686.00,0.0187
3685.75,0.0186
3685.50,0.0185
3685.25,0.0186
3685.00,0.0187
3684.75,0.0187
3684.50,0.0188
3684.25,0.0187
3684.00,0.0186
3683.75,0.0186
3683.50,0.0186
3683.25,0.0187
3683.00,0.0187
3682.75,0.0187
3682.50,0.0188
3682.25,0.0188
3682.00,0.0187
3681.75,0.0186
3681.50,0.0185
3681.25,0.0184
3681.00,0.0184
3680.75,0.0183
3680.50,0.0183
3680.25,0.0183
3680.00,0.0182
3679.75,0.0182
3679.50,0.0182
3679.25,0.0182
3679.00,0.0183
3678.75,0.0184
3678.50,0.0185
3678.25,0.0186
3678.00,0.0187
3677.75,0.0186
3677.50,0.0184
3677.25,0.0182
3677.00,0.0179
3676.75,0.0178
3676.50,0.0178
3676.25,0.0181
3676.00,0.0186
3675.75,0.0193
3675.50,0.0202
3675.25,0.0209
3675.00,0.0211
3674.75,0.0208
3674.50,0.0203
3674.25,0.0199
3674.00,0.0197
3673.75,0.0195
3673.50,0.0193
3673.25,0.0191
3673.00,0.0189
3672.75,0.0186
3672.50,0.0185
3672.25,0.0185
3672.00,0.0186
3671.75,0.0186
3671.50,0.0186
3671.25,0.0184
3671.00,0.0185
3670.75,0.0188
3670.50,0.0195
3670.25,0.0199
3670.00,0.0199
3669.75,0.0197
3669.50,0.0194
3669.25,0.0192
3669.00,0.0191
3668.75,0.0191
3668.50,0.0191
3668.25,0.0191
3668.00,0.0192
3667.75,0.0192
3667.50,0.0192
3667.25,0.0192
3667.00,0.0191
3666.75,0.0190
3666.50,0.0189
3666.25,0.0188
3666.00,0.0187
3665.75,0.0185
3665.50,0.0184
3665.25,0.0182
3665.00,0.0182
3664.75,0.0182
3664.50,0.0184
3664.25,0.0186
3664.00,0.0189
3663.75,0.0191
3663.50,0.0191
3663.25,0.0190
3663.00,0.0190
3662.75,0.0189
3662.50,0.0189
3662.25,0.0189
3662.00,0.0189
3661.75,0.0188
3661.50,0.0187
3661.25,0.0186
3661.00,0.0185
3660.75,0.0185
3660.50,0.0185
3660.25,0.0186
3660.00,0.0186
3659.75,0.0187
3659.50,0.0187
3659.25,0.0186
3659.00,0.0185
3658.75,0.0185
3658.50,0.0184
3658.25,0.0184
3658.00,0.0184
3657.75,0.0186
3657.50,0.0188
3657.25,0.0190
3657.00,0.0192
3656.75,0.0193
3656.50,0.0194
3656.25,0.0194
3656.00,0.0195
3655.75,0.0195
3655.50,0.0195
3655.25,0.0193
3655.00,0.0191
3654.75,0.0189
3654.50,0.0187
3654.25,0.0187
3654.00,0.0188
3653.75,0.0189
3653.50,0.0191
3653.25,0.0192
3653.00,0.0192
3652.75,0.0191
3652.50,0.0190
3652.25,0.0188
3652.00,0.0186
3651.75,0.0184
3651.50,0.0182
3651.25,0.0181
3651.00,0.0181
3650.75,0.0185
3650.50,0.0191
3650.25,0.0197
3650.00,0.0203
3649.75,0.0205
3649.50,0.0204
3649.25,0.0200
3649.00,0.0195
3648.75,0.0194
3648.50,0.0196
3648.25,0.0198
3648.00,0.0201
3647.75,0.0203
3647.50,0.0203
3647.25,0.0201
3647.00,0.0196
3646.75,0.0190
3646.50,0.0187
3646.25,0.0185
3646.00,0.0184
3645.75,0.0186
3645.50,0.0187
3645.25,0.0189
3645.00,0.0191
3644.75,0.0193
3644.50,0.0195
3644.25,0.0196
3644.00,0.0196
3643.75,0.0195
3643.50,0.0193
3643.25,0.0191
3643.00,0.0189
3642.75,0.0187
3642.50,0.0187
3642.25,0.0186
3642.00,0.0186
3641.75,0.0187
3641.50,0.0187
3641.25,0.0187
3641.00,0.0187
3640.75,0.0186
3640.50,0.0185
3640.25,0.0185
3640.00,0.0186
3639.75,0.0188
3639.50,0.0190
3639.25,0.0192
3639.00,0.0192
3638.75,0.0191
3638.50,0.0189
3638.25,0.0188
3638.00,0.0188
3637.75,0.0187
3637.50,0.0187
3637.25,0.0186
3637.00,0.0184
3636.75,0.0183
3636.50,0.0182
3636.25,0.0183
3636.00,0.0184
3635.75,0.0186
3635.50,0.0188
3635.25,0.0189
3635.00,0.0189
3634.75,0.0189
3634.50,0.0187
3634.25,0.0185
3634.00,0.0182
3633.75,0.0182
3633.50,0.0184
3633.25,0.0188
3633.00,0.0190
3632.75,0.0191
3632.50,0.0191
3632.25,0.0190
3632.00,0.0190
3631.75,0.0190
3631.50,0.0190
3631.25,0.0191
3631.00,0.0192
3630.75,0.0193
3630.50,0.0194
3630.25,0.0194
3630.00,0.0195
3629.75,0.0195
3629.50,0.0195
3629.25,0.0195
3629.00,0.0196
3628.75,0.0197
3628.50,0.0198
3628.25,0.0198
3628.00,0.0199
3627.75,0.0199
3627.50,0.0199
3627.25,0.0198
3627.00,0.0196
3626.75,0.0194
3626.50,0.0192
3626.25,0.0190
3626.00,0.0189
3625.75,0.0188
3625.50,0.0188
3625.25,0.0187
3625.00,0.0186
3624.75,0.0184
3624.50,0.0182
3624.25,0.0180
3624.00,0.0181
3623.75,0.0184
3623.50,0.0187
3623.25,0.0190
3623.00,0.0192
3622.75,0.0193
3622.50,0.0194
3622.25,0.0195
3622.00,0.0195
3621.75,0.0195
3621.50,0.0194
3621.25,0.0192
3621.00,0.0189
3620.75,0.0186
3620.50,0.0182
3620.25,0.0179
3620.00,0.0178
3619.75,0.0178
3619.50,0.0182
3619.25,0.0189
3619.00,0.0195
3618.75,0.0198
3618.50,0.0198
3618.25,0.0197
3618.00,0.0195
3617.75,0.0192
3617.50,0.0189
3617.25,0.0186
3617.00,0.0184
3616.75,0.0184
3616.50,0.0185
3616.25,0.0186
3616.00,0.0185
3615.75,0.0184
3615.50,0.0183
3615.25,0.0183
3615.00,0.0186
3614.75,0.0191
3614.50,0.0196
3614.25,0.0197
3614.00,0.0196
3613.75,0.0194
3613.50,0.0192
3613.25,0.0191
3613.00,0.0191
3612.75,0.0191
3612.50,0.0192
3612.25,0.0192
3612.00,0.0193
3611.75,0.0194
3611.50,0.0194
3611.25,0.0194
3611.00,0.0194
3610.75,0.0194
3610.50,0.0193
3610.25,0.0192
3610.00,0.0191
3609.75,0.0192
3609.50,0.0195
3609.25,0.0199
3609.00,0.0203
3608.75,0.0202
3608.50,0.0200
3608.25,0.0196
3608.00,0.0193
3607.75,0.0191
3607.50,0.0189
3607.25,0.0188
3607.00,0.0187
3606.75,0.0185
3606.50,0.0185
3606.25,0.0185
3606.00,0.0186
3605.75,0.0186
3605.50,0.0185
3605.25,0.0184
3605.00,0.0183
3604.75,0.0183
3604.50,0.0183
3604.25,0.0184
3604.00,0.0186
3603.75,0.0188
3603.50,0.0189
3603.25,0.0190
3603.00,0.0191
3602.75,0.0191
3602.50,0.0192
3602.25,0.0191
3602.00,0.0190
3601.75,0.0190
3601.50,0.0189
3601.25,0.0189
3601.00,0.0189
3600.75,0.0188
3600.50,0.0188
3600.25,0.0189
3600.00,0.0190
3599.75,0.0191
3599.50,0.0192
3599.25,0.0193
3599.00,0.0193
3598.75,0.0191
3598.50,0.0189
3598.25,0.0187
3598.00,0.0186
3597.75,0.0186
3597.50,0.0187
3597.25,0.0188
3597.00,0.0190
3596.75,0.0192
3596.50,0.0194
3596.25,0.0196
3596.00,0.0197
3595.75,0.0198
3595.50,0.0198
3595.25,0.0198
3595.00,0.0197
3594.75,0.0197
3594.50,0.0196
3594.25,0.0196
3594.00,0.0196
3593.75,0.0197
3593.50,0.0197
3593.25,0.0195
3593.00,0.0192
3592.75,0.0189
3592.50,0.0188
3592.25,0.0187
3592.00,0.0189
3591.75,0.0190
3591.50,0.0192
3591.25,0.0194
3591.00,0.0196
3590.75,0.0196
3590.50,0.0196
3590.25,0.0195
3590.00,0.0195
3589.75,0.0194
3589.50,0.0194
3589.25,0.0193
3589.00,0.0193
3588.75,0.0193
3588.50,0.0195
3588.25,0.0199
3588.00,0.0202
3587.75,0.0204
3587.50,0.0202
3587.25,0.0198
3587.00,0.0193
3586.75,0.0189
3586.50,0.0186
3586.25,0.0187
3586.00,0.0190
3585.75,0.0192
3585.50,0.0193
3585.25,0.0194
3585.00,0.0193
3584.75,0.0192
3584.50,0.0192
3584.25,0.0191
3584.00,0.0191
3583.75,0.0190
3583.50,0.0190
3583.25,0.0188
3583.00,0.0187
3582.75,0.0186
3582.50,0.0185
3582.25,0.0185
3582.00,0.0184
3581.75,0.0184
3581.50,0.0184
3581.25,0.0185
3581.00,0.0187
3580.75,0.0188
3580.50,0.0190
3580.25,0.0191
3580.00,0.0191
3579.75,0.0191
3579.50,0.0191
3579.25,0.0190
3579.00,0.0190
3578.75,0.0188
3578.50,0.0187
3578.25,0.0186
3578.00,0.0186
3577.75,0.0187
3577.50,0.0188
3577.25,0.0190
3577.00,0.0192
3576.75,0.0192
3576.50,0.0191
3576.25,0.0189
3576.00,0.0188
3575.75,0.0186
3575.50,0.0186
3575.25,0.0185
3575.00,0.0184
3574.75,0.0184
3574.50,0.0183
3574.25,0.0183
3574.00,0.0184
3573.75,0.0185
3573.50,0.0187
3573.25,0.0188
3573.00,0.0189
3572.75,0.0190
3572.50,0.0191
3572.25,0.0192
3572.00,0.0194
3571.75,0.0194
3571.50,0.0194
3571.25,0.0193
3571.00,0.0190
3570.75,0.0188
3570.50,0.0187
3570.25,0.0187
3570.00,0.0189
3569.75,0.0191
3569.50,0.0193
3569.25,0.0194
3569.00,0.0194
3568.75,0.0192
3568.50,0.0191
3568.25,0.0190
3568.00,0.0192
3567.75,0.0195
3567.50,0.0198
3567.25,0.0200
3567.00,0.0200
3566.75,0.0201
3566.50,0.0201
3566.25,0.0202
3566.00,0.0201
3565.75,0.0198
3565.50,0.0195
3565.25,0.0193
3565.00,0.0190
3564.75,0.0188
3564.50,0.0186
3564.25,0.0184
3564.00,0.0183
3563.75,0.0182
3563.50,0.0182
3563.25,0.0184
3563.00,0.0187
3562.75,0.0190
3562.50,0.0193
3562.25,0.0194
3562.00,0.0194
3561.75,0.0192
3561.50,0.0191
3561.25,0.0189
3561.00,0.0189
3560.75,0.0189
3560.50,0.0189
3560.25,0.0190
3560.00,0.0190
3559.75,0.0190
3559.50,0.0190
3559.25,0.0191
3559.00,0.0191
3558.75,0.0192
3558.50,0.0191
3558.25,0.0190
3558.00,0.0189
3557.75,0.0188
3557.50,0.0187
3557.25,0.0187
3557.00,0.0187
3556.75,0.0187
3556.50,0.0187
3556.25,0.0186
3556.00,0.0185
3555.75,0.0184
3555.50,0.0184
3555.25,0.0185
3555.00,0.0185
3554.75,0.0186
3554.50,0.0187
3554.25,0.0188
3554.00,0.0188
3553.75,0.0188
3553.50,0.0187
3553.25,0.0187
3553.00,0.0188
3552.75,0.0190
3552.50,0.0192
3552.25,0.0193
3552.00,0.0193
3551.75,0.0192
3551.50,0.0191
3551.25,0.0190
3551.00,0.0190
3550.75,0.0189
3550.50,0.0188
3550.25,0.0188
3550.00,0.0189
3549.75,0.0190
3549.50,0.0190
3549.25,0.0189
3549.00,0.0188
3548.75,0.0186
3548.50,0.0185
3548.25,0.0185
3548.00,0.0185
3547.75,0.0186
3547.50,0.0187
3547.25,0.0189
3547.00,0.0190
3546.75,0.0192
3546.50,0.0193
3546.25,0.0193
3546.00,0.0194
3545.75,0.0195
3545.50,0.0195
3545.25,0.0194
3545.00,0.0191
3544.75,0.0188
3544.50,0.0186
3544.25,0.0185
3544.00,0.0186
3543.75,0.0187
3543.50,0.0188
3543.25,0.0189
3543.00,0.0189
3542.75,0.0190
3542.50,0.0191
3542.25,0.0191
3542.00,0.0191
3541.75,0.0191
3541.50,0.0191
3541.25,0.0191
3541.00,0.0191
3540.75,0.0191
3540.50,0.0191
3540.25,0.0191
3540.00,0.0191
3539.75,0.0190
3539.50,0.0190
3539.25,0.0189
3539.00,0.0188
3538.75,0.0187
3538.50,0.0186
3538.25,0.0186
3538.00,0.0188
3537.75,0.0190
3537.50,0.0192
3537.25,0.0194
3537.00,0.0195
3536.75,0.0196
3536.50,0.0196
3536.25,0.0197
3536.00,0.0197
3535.75,0.0197
3535.50,0.0197
3535.25,0.0197
3535.00,0.0195
3534.75,0.0193
3534.50,0.0191
3534.25,0.0188
3534.00,0.0187
3533.75,0.0186
3533.50,0.0186
3533.25,0.0187
3533.00,0.0187
3532.75,0.0186
3532.50,0.0186
3532.25,0.0188
3532.00,0.0191
3531.75,0.0194
3531.50,0.0197
3531.25,0.0198
3531.00,0.0197
3530.75,0.0194
3530.50,0.0190
3530.25,0.0188
3530.00,0.0188
3529.75,0.0188
3529.50,0.0190
3529.25,0.0192
3529.00,0.0194
3528.75,0.0195
3528.50,0.0195
3528.25,0.0195
3528.00,0.0194
3527.75,0.0193
3527.50,0.0193
3527.25,0.0193
3527.00,0.0193
3526.75,0.0193
3526.50,0.0192
3526.25,0.0191
3526.00,0.0190
3525.75,0.0188
3525.50,0.0187
3525.25,0.0187
3525.00,0.0187
3524.75,0.0188
3524.50,0.0190
3524.25,0.0192
3524.00,0.0194
3523.75,0.0197
3523.50,0.0199
3523.25,0.0200
3523.00,0.0200
3522.75,0.0199
3522.50,0.0197
3522.25,0.0195
3522.00,0.0192
3521.75,0.0191
3521.50,0.0190
3521.25,0.0190
3521.00,0.0190
3520.75,0.0191
3520.50,0.0190
3520.25,0.0189
3520.00,0.0188
3519.75,0.0186
3519.50,0.0185
3519.25,0.0186
3519.00,0.0188
3518.75,0.0190
3518.50,0.0191
3518.25,0.0193
3518.00,0.0194
3517.75,0.0195
3517.50,0.0196
3517.25,0.0195
3517.00,0.0193
3516.75,0.0191
3516.50,0.0190
3516.25,0.0190
3516.00,0.0190
3515.75,0.0191
3515.50,0.0191
3515.25,0.0191
3515.00,0.0190
3514.75,0.0189
3514.50,0.0188
3514.25,0.0188
3514.00,0.0188
3513.75,0.0187
3513.50,0.0186
3513.25,0.0184
3513.00,0.0183
3512.75,0.0184
3512.50,0.0186
3512.25,0.0189
3512.00,0.0190
3511.75,0.0191
3511.50,0.0191
3511.25,0.0192
3511.00,0.0192
3510.75,0.0193
3510.50,0.0193
3510.25,0.0193
3510.00,0.0194
3509.75,0.0194
3509.50,0.0194
3509.25,0.0193
3509.00,0.0192
3508.75,0.0191
3508.50,0.0190
3508.25,0.0189
3508.00,0.0189
3507.75,0.0188
3507.50,0.0188
3507.25,0.0187
3507.00,0.0187
3506.75,0.0188
3506.50,0.0189
3506.25,0.0191
3506.00,0.0192
3505.75,0.0192
3505.50,0.0192
3505.25,0.0192
3505.00,0.0193
3504.75,0.0195
3504.50,0.0196
3504.25,0.0196
3504.00,0.0196
3503.75,0.0194
3503.50,0.0192
3503.25,0.0191
3503.00,0.0189
3502.75,0.0189
3502.50,0.0189
3502.25,0.0189
3502.00,0.0189
3501.75,0.0189
3501.50,0.0189
3501.25,0.0189
3501.00,0.0190
3500.75,0.0191
3500.50,0.0192
3500.25,0.0192
3500.00,0.0192
3499.75,0.0191
3499.50,0.0190
3499.25,0.0190
3499.00,0.0190
3498.75,0.0190
3498.50,0.0190
3498.25,0.0190
3498.00,0.0189
3497.75,0.0188
3497.50,0.0188
3497.25,0.0188
3497.00,0.0188
3496.75,0.0189
3496.50,0.0191
3496.25,0.0192
3496.00,0.0193
3495.75,0.0193
3495.50,0.0192
3495.25,0.0192
3495.00,0.0190
3494.75,0.0189
3494.50,0.0189
3494.25,0.0189
3494.00,0.0190
3493.75,0.0191
3493.50,0.0192
3493.25,0.0193
3493.00,0.0194
3492.75,0.0193
3492.50,0.0193
3492.25,0.0192
3492.00,0.0192
3491.75,0.0192
3491.50,0.0192
3491.25,0.0191
3491.00,0.0190
3490.75,0.0189
3490.50,0.0188
3490.25,0.0189
3490.00,0.0189
3489.75,0.0190
3489.50,0.0191
3489.25,0.0190
3489.00,0.0189
3488.75,0.0188
3488.50,0.0187
3488.25,0.0187
3488.00,0.0187
3487.75,0.0189
3487.50,0.0191
3487.25,0.0192
3487.00,0.0193
3486.75,0.0192
3486.50,0.0192
3486.25,0.0192
3486.00,0.0192
3485.75,0.0192
3485.50,0.0192
3485.25,0.0193
3485.00,0.0193
3484.75,0.0194
3484.50,0.0194
3484.25,0.0193
3484.00,0.0192
3483.75,0.0190
3483.50,0.0189
3483.25,0.0189
3483.00,0.0189
3482.75,0.0190
3482.50,0.0190
3482.25,0.0190
3482.00,0.0190
3481.75,0.0191
3481.50,0.0192
3481.25,0.0193
3481.00,0.0194
3480.75,0.0194
3480.50,0.0194
3480.25,0.0193
3480.00,0.0193
3479.75,0.0192
3479.50,0.0192
3479.25,0.0192
3479.00,0.0192
3478.75,0.0190
3478.50,0.0189
3478.25,0.0188
3478.00,0.0187
3477.75,0.0187
3477.50,0.0187
3477.25,0.0188
3477.00,0.0189
3476.75,0.0189
3476.50,0.0190
3476.25,0.0191
3476.00,0.0191
3475.75,0.0190
3475.50,0.0190
3475.25,0.0189
3475.00,0.0188
3474.75,0.0188
3474.50,0.0189
3474.25,0.0189
3474.00,0.0190
3473.75,0.0191
3473.50,0.0190
3473.25,0.0190
3473.00,0.0189
3472.75,0.0189
3472.50,0.0190
3472.25,0.0191
3472.00,0.0191
3471.75,0.0190
3471.50,0.0189
3471.25,0.0187
3471.00,0.0185
3470.75,0.0185
3470.50,0.0187
3470.25,0.0189
3470.00,0.0191
3469.75,0.0192
3469.50,0.0192
3469.25,0.0193
3469.00,0.0193
3468.75,0.0193
3468.50,0.0193
3468.25,0.0191
3468.00,0.0188
3467.75,0.0186
3467.50,0.0184
3467.25,0.0182
3467.00,0.0182
3466.75,0.0183
3466.50,0.0185
3466.25,0.0188
3466.00,0.0190
3465.75,0.0191
3465.50,0.0192
3465.25,0.0191
3465.00,0.0190
3464.75,0.0189
3464.50,0.0188
3464.25,0.0188
3464.00,0.0189
3463.75,0.0190
3463.50,0.0191
3463.25,0.0191
3463.00,0.0191
3462.75,0.0191
3462.50,0.0191
3462.25,0.0191
3462.00,0.0191
3461.75,0.0191
3461.50,0.0190
3461.25,0.0190
3461.00,0.0190
3460.75,0.0191
3460.50,0.0192
3460.25,0.0192
3460.00,0.0192
3459.75,0.0192
3459.50,0.0193
3459.25,0.0194
3459.00,0.0195
3458.75,0.0194
3458.50,0.0192
3458.25,0.0191
3458.00,0.0190
3457.75,0.0191
3457.50,0.0192
3457.25,0.0192
3457.00,0.0192
3456.75,0.0191
3456.50,0.0189
3456.25,0.0188
3456.00,0.0187
3455.75,0.0186
3455.50,0.0186
3455.25,0.0187
3455.00,0.0188
3454.75,0.0189
3454.50,0.0190
3454.25,0.0190
3454.00,0.0189
3453.75,0.0189
3453.50,0.0188
3453.25,0.0188
3453.00,0.0188
3452.75,0.0189
3452.50,0.0189
3452.25,0.0189
3452.00,0.0189
3451.75,0.0188
3451.50,0.0188
3451.25,0.0187
3451.00,0.0188
3450.75,0.0189
3450.50,0.0190
3450.25,0.0191
3450.00,0.0191
3449.75,0.0190
3449.50,0.0189
3449.25,0.0187
3449.00,0.0187
3448.75,0.0187
3448.50,0.0188
3448.25,0.0189
3448.00,0.0190
3447.75,0.0191
3447.50,0.0191
3447.25,0.0190
3447.00,0.0188
3446.75,0.0187
3446.50,0.0187
3446.25,0.0187
3446.00,0.0187
3445.75,0.0187
3445.50,0.0187
3445.25,0.0188
3445.00,0.0190
3444.75,0.0191
3444.50,0.0191
3444.25,0.0190
3444.00,0.0189
3443.75,0.0190
3443.50,0.0191
3443.25,0.0192
3443.00,0.0193
3442.75,0.0194
3442.50,0.0193
3442.25,0.0192
3442.00,0.0191
3441.75,0.0190
3441.50,0.0190
3441.25,0.0190
3441.00,0.0190
3440.75,0.0191
3440.50,0.0191
3440.25,0.0191
3440.00,0.0191
3439.75,0.0191
3439.50,0.0190
3439.25,0.0190
3439.00,0.0189
3438.75,0.0189
3438.50,0.0190
3438.25,0.0190
3438.00,0.0191
3437.75,0.0191
3437.50,0.0192
3437.25,0.0193
3437.00,0.0193
3436.75,0.0193
3436.50,0.0193
3436.25,0.0192
3436.00,0.0191
3435.75,0.0190
3435.50,0.0190
3435.25,0.0190
3435.00,0.0190
3434.75,0.0191
3434.50,0.0191
3434.25,0.0192
3434.00,0.0193
3433.75,0.0192
3433.50,0.0192
3433.25,0.0190
3433.00,0.0189
3432.75,0.0188
3432.50,0.0188
3432.25,0.0189
3432.00,0.0190
3431.75,0.0192
3431.50,0.0192
3431.25,0.0193
3431.00,0.0193
3430.75,0.0193
3430.50,0.0193
3430.25,0.0194
3430.00,0.0193
3429.75,0.0192
3429.50,0.0189
3429.25,0.0186
3429.00,0.0184
3428.75,0.0183
3428.50,0.0183
3428.25,0.0185
3428.00,0.0187
3427.75,0.0187
3427.50,0.0187
3427.25,0.0187
3427.00,0.0187
3426.75,0.0188
3426.50,0.0188
3426.25,0.0188
3426.00,0.0189
3425.75,0.0189
3425.50,0.0188
3425.25,0.0188
3425.00,0.0187
3424.75,0.0187
3424.50,0.0187
3424.25,0.0188
3424.00,0.0189
3423.75,0.0190
3423.50,0.0190
3423.25,0.0190
3423.00,0.0190
3422.75,0.0189
3422.50,0.0189
3422.25,0.0189
3422.00,0.0189
3421.75,0.0189
3421.50,0.0190
3421.25,0.0191
3421.00,0.0192
3420.75,0.0192
3420.50,0.0192
3420.25,0.0192
3420.00,0.0192
3419.75,0.0192
3419.50,0.0192
3419.25,0.0192
3419.00,0.0191
3418.75,0.0190
3418.50,0.0188
3418.25,0.0188
3418.00,0.0188
3417.75,0.0189
3417.50,0.0189
3417.25,0.0190
3417.00,0.0191
3416.75,0.0192
3416.50,0.0194
3416.25,0.0195
3416.00,0.0195
3415.75,0.0194
3415.50,0.0193
3415.25,0.0191
3415.00,0.0190
3414.75,0.0189
3414.50,0.0188
3414.25,0.0188
3414.00,0.0188
3413.75,0.0189
3413.50,0.0191
3413.25,0.0192
3413.00,0.0192
3412.75,0.0191
3412.50,0.0189
3412.25,0.0188
3412.00,0.0186
3411.75,0.0185
3411.50,0.0185
3411.25,0.0186
3411.00,0.0187
3410.75,0.0189
3410.50,0.0190
3410.25,0.0191
3410.00,0.0190
3409.75,0.0189
3409.50,0.0189
3409.25,0.0189
3409.00,0.0190
3408.75,0.0191
3408.50,0.0192
3408.25,0.0192
3408.00,0.0191
3407.75,0.0190
3407.50,0.0190
3407.25,0.0191
3407.00,0.0192
3406.75,0.0193
3406.50,0.0193
3406.25,0.0192
3406.00,0.0190
3405.75,0.0188
3405.50,0.0186
3405.25,0.0185
3405.00,0.0184
3404.75,0.0184
3404.50,0.0185
3404.25,0.0188
3404.00,0.0190
3403.75,0.0191
3403.50,0.0192
3403.25,0.0192
3403.00,0.0191
3402.75,0.0190
3402.50,0.0188
3402.25,0.0188
3402.00,0.0187
3401.75,0.0187
3401.50,0.0188
3401.25,0.0189
3401.00,0.0190
3400.75,0.0191
3400.50,0.0192
3400.25,0.0192
3400.00,0.0192
3399.75,0.0192
3399.50,0.0191
3399.25,0.0191
3399.00,0.0190
3398.75,0.0190
3398.50,0.0190
3398.25,0.0191
3398.00,0.0192
3397.75,0.0192
3397.50,0.0190
3397.25,0.0189
3397.00,0.0188
3396.75,0.0188
3396.50,0.0188
3396.25,0.0189
3396.00,0.0190
3395.75,0.0192
3395.50,0.0194
3395.25,0.0195
3395.00,0.0196
3394.75,0.0196
3394.50,0.0195
3394.25,0.0193
3394.00,0.0192
3393.75,0.0191
3393.50,0.0190
3393.25,0.0190
3393.00,0.0189
3392.75,0.0190
3392.50,0.0190
3392.25,0.0191
3392.00,0.0192
3391.75,0.0192
3391.50,0.0192
3391.25,0.0191
3391.00,0.0190
3390.75,0.0189
3390.50,0.0189
3390.25,0.0189
3390.00,0.0190
3389.75,0.0191
3389.50,0.0191
3389.25,0.0190
3389.00,0.0189
3388.75,0.0187
3388.50,0.0186
3388.25,0.0186
3388.00,0.0186
3387.75,0.0187
3387.50,0.0188
3387.25,0.0189
3387.00,0.0190
3386.75,0.0191
3386.50,0.0192
3386.25,0.0192
3386.00,0.0192
3385.75,0.0191
3385.50,0.0190
3385.25,0.0188
3385.00,0.0187
3384.75,0.0187
3384.50,0.0189
3384.25,0.0191
3384.00,0.0194
3383.75,0.0194
3383.50,0.0193
3383.25,0.0190
3383.00,0.0187
3382.75,0.0185
3382.50,0.0184
3382.25,0.0185
3382.00,0.0186
3381.75,0.0188
3381.50,0.0189
3381.25,0.0190
3381.00,0.0191
3380.75,0.0191
3380.50,0.0191
3380.25,0.0191
3380.00,0.0189
3379.75,0.0188
3379.50,0.0187
3379.25,0.0187
3379.00,0.0187
3378.75,0.0188
3378.50,0.0188
3378.25,0.0188
3378.00,0.0189
3377.75,0.0190
3377.50,0.0191
3377.25,0.0192
3377.00,0.0192
3376.75,0.0192
3376.50,0.0192
3376.25,0.0190
3376.00,0.0189
3375.75,0.0187
3375.50,0.0186
3375.25,0.0185
3375.00,0.0184
3374.75,0.0184
3374.50,0.0184
3374.25,0.0185
3374.00,0.0186
3373.75,0.0186
3373.50,0.0185
3373.25,0.0185
3373.00,0.0185
3372.75,0.0186
3372.50,0.0188
3372.25,0.0191
3372.00,0.0193
3371.75,0.0193
3371.50,0.0193
3371.25,0.0192
3371.00,0.0190
3370.75,0.0189
3370.50,0.0189
3370.25,0.0189
3370.00,0.0189
3369.75,0.0189
3369.50,0.0189
3369.25,0.0189
3369.00,0.0189
3368.75,0.0190
3368.50,0.0190
3368.25,0.0189
3368.00,0.0189
3367.75,0.0188
3367.50,0.0187
3367.25,0.0187
3367.00,0.0187
3366.75,0.0188
3366.50,0.0189
3366.25,0.0190
3366.00,0.0192
3365.75,0.0193
3365.50,0.0194
3365.25,0.0194
3365.00,0.0194
3364.75,0.0193
3364.50,0.0192
3364.25,0.0190
3364.00,0.0187
3363.75,0.0185
3363.50,0.0183
3363.25,0.0183
3363.00,0.0184
3362.75,0.0186
3362.50,0.0187
3362.25,0.0188
3362.00,0.0188
3361.75,0.0187
3361.50,0.0187
3361.25,0.0187
3361.00,0.0187
3360.75,0.0186
3360.50,0.0186
3360.25,0.0186
3360.00,0.0185
3359.75,0.0186
3359.50,0.0186
3359.25,0.0187
3359.00,0.0188
3358.75,0.0189
3358.50,0.0189
3358.25,0.0189
3358.00,0.0190
3357.75,0.0192
3357.50,0.0193
3357.25,0.0195
3357.00,0.0195
3356.75,0.0193
3356.50,0.0191
3356.25,0.0189
3356.00,0.0187
3355.75,0.0186
3355.50,0.0186
3355.25,0.0187
3355.00,0.0188
3354.75,0.0189
3354.50,0.0190
3354.25,0.0191
3354.00,0.0191
3353.75,0.0190
3353.50,0.0190
3353.25,0.0189
3353.00,0.0188
3352.75,0.0187
3352.50,0.0186
3352.25,0.0185
3352.00,0.0185
3351.75,0.0185
3351.50,0.0186
3351.25,0.0186
3351.00,0.0186
3350.75,0.0186
3350.50,0.0185
3350.25,0.0185
3350.00,0.0185
3349.75,0.0186
3349.50,0.0188
3349.25,0.0190
3349.00,0.0191
3348.75,0.0191
3348.50,0.0190
3348.25,0.0187
3348.00,0.0186
3347.75,0.0185
3347.50,0.0186
3347.25,0.0188
3347.00,0.0189
3346.75,0.0190
3346.50,0.0191
3346.25,0.0191
3346.00,0.0190
3345.75,0.0189
3345.50,0.0188
3345.25,0.0188
3345.00,0.0188
3344.75,0.0188
3344.50,0.0189
3344.25,0.0189
3344.00,0.0189
3343.75,0.0190
3343.50,0.0190
3343.25,0.0190
3343.00,0.0189
3342.75,0.0189
3342.50,0.0188
3342.25,0.0187
3342.00,0.0186
3341.75,0.0186
3341.50,0.0186
3341.25,0.0187
3341.00,0.0188
3340.75,0.0188
3340.50,0.0189
3340.25,0.0189
3340.00,0.0189
3339.75,0.0189
3339.50,0.0189
3339.25,0.0189
3339.00,0.0189
3338.75,0.0190
3338.50,0.0190
3338.25,0.0190
3338.00,0.0189
3337.75,0.0189
3337.50,0.0188
3337.25,0.0188
3337.00,0.0189
3336.75,0.0190
3336.50,0.0191
3336.25,0.0191
3336.00,0.0190
3335.75,0.0189
3335.50,0.0189
3335.25,0.0189
3335.00,0.0190
3334.75,0.0190
3334.50,0.0191
3334.25,0.0190
3334.00,0.0190
3333.75,0.0189
3333.50,0.0188
3333.25,0.0188
3333.00,0.0187
3332.75,0.0187
3332.50,0.0187
3332.25,0.0187
3332.00,0.0188
3331.75,0.0189
3331.50,0.0190
3331.25,0.0189
3331.00,0.0188
3330.75,0.0188
3330.50,0.0189
3330.25,0.0191
3330.00,0.0193
3329.75,0.0194
3329.50,0.0193
3329.25,0.0192
3329.00,0.0191
3328.75,0.0191
3328.50,0.0191
3328.25,0.0192
3328.00,0.0192
3327.75,0.0192
3327.50,0.0193
3327.25,0.0193
3327.00,0.0194
3326.75,0.0193
3326.50,0.0192
3326.25,0.0191
3326.00,0.0189
3325.75,0.0189
3325.50,0.0188
3325.25,0.0187
3325.00,0.0187
3324.75,0.0187
3324.50,0.0187
3324.25,0.0188
3324.00,0.0189
3323.75,0.0189
3323.50,0.0189
3323.25,0.0190
3323.00,0.0191
3322.75,0.0191
3322.50,0.0191
3322.25,0.0190
3322.00,0.0188
3321.75,0.0185
3321.50,0.0183
3321.25,0.0182
3321.00,0.0182
3320.75,0.0183
3320.50,0.0184
3320.25,0.0185
3320.00,0.0186
3319.75,0.0187
3319.50,0.0188
3319.25,0.0189
3319.00,0.0190
3318.75,0.0191
3318.50,0.0192
3318.25,0.0192
3318.00,0.0192
3317.75,0.0190
3317.50,0.0189
3317.25,0.0188
3317.00,0.0187
3316.75,0.0188
3316.50,0.0189
3316.25,0.0189
3316.00,0.0190
3315.75,0.0190
3315.50,0.0189
3315.25,0.0188
3315.00,0.0188
3314.75,0.0189
3314.50,0.0190
3314.25,0.0192
3314.00,0.0192
3313.75,0.0192
3313.50,0.0191
3313.25,0.0189
3313.00,0.0188
3312.75,0.0188
3312.50,0.0189
3312.25,0.0190
3312.00,0.0192
3311.75,0.0192
3311.50,0.0192
3311.25,0.0191
3311.00,0.0189
3310.75,0.0188
3310.50,0.0187
3310.25,0.0187
3310.00,0.0188
3309.75,0.0189
3309.50,0.0189
3309.25,0.0189
3309.00,0.0188
3308.75,0.0187
3308.50,0.0187
3308.25,0.0187
3308.00,0.0189
3307.75,0.0190
3307.50,0.0190
3307.25,0.0190
3307.00,0.0190
3306.75,0.0190
3306.50,0.0190
3306.25,0.0190
3306.00,0.0190
3305.75,0.0190
3305.50,0.0190
3305.25,0.0189
3305.00,0.0188
3304.75,0.0186
3304.50,0.0185
3304.25,0.0185
3304.00,0.0187
3303.75,0.0188
3303.50,0.0190
3303.25,0.0192
3303.00,0.0194
3302.75,0.0196
3302.50,0.0196
3302.25,0.0195
3302.00,0.0193
3301.75,0.0191
3301.50,0.0189
3301.25,0.0188
3301.00,0.0187
3300.75,0.0187
3300.50,0.0187
3300.25,0.0187
3300.00,0.0188
3299.75,0.0189
3299.50,0.0189
3299.25,0.0189
3299.00,0.0189
3298.75,0.0190
3298.50,0.0190
3298.25,0.0190
3298.00,0.0190
3297.75,0.0189
3297.50,0.0189
3297.25,0.0189
3297.00,0.0189
3296.75,0.0190
3296.50,0.0190
3296.25,0.0191
3296.00,0.0190
3295.75,0.0190
3295.50,0.0190
3295.25,0.0190
3295.00,0.0191
3294.75,0.0193
3294.50,0.0193
3294.25,0.0193
3294.00,0.0191
3293.75,0.0190
3293.50,0.0189
3293.25,0.0189
3293.00,0.0188
3292.75,0.0188
3292.50,0.0188
3292.25,0.0189
3292.00,0.0189
3291.75,0.0190
3291.50,0.0190
3291.25,0.0189
3291.00,0.0188
3290.75,0.0188
3290.50,0.0189
3290.25,0.0190
3290.00,0.0190
3289.75,0.0190
3289.50,0.0189
3289.25,0.0188
3289.00,0.0189
3288.75,0.0189
3288.50,0.0190
3288.25,0.0189
3288.00,0.0188
3287.75,0.0187
3287.50,0.0186
3287.25,0.0186
3287.00,0.0186
3286.75,0.0186
3286.50,0.0186
3286.25,0.0186
3286.00,0.0187
3285.75,0.0188
3285.50,0.0189
3285.25,0.0191
3285.00,0.0192
3284.75,0.0193
3284.50,0.0193
3284.25,0.0192
3284.00,0.0191
3283.75,0.0190
3283.50,0.0188
3283.25,0.0188
3283.00,0.0188
3282.75,0.0188
3282.50,0.0188
3282.25,0.0189
3282.00,0.0189
3281.75,0.0189
3281.50,0.0188
3281.25,0.0186
3281.00,0.0185
3280.75,0.0184
3280.50,0.0185
3280.25,0.0186
3280.00,0.0187
3279.75,0.0188
3279.50,0.0189
3279.25,0.0190
3279.00,0.0191
3278.75,0.0191
3278.50,0.0192
3278.25,0.0191
3278.00,0.0191
3277.75,0.0190
3277.50,0.0190
3277.25,0.0190
3277.00,0.0189
3276.75,0.0188
3276.50,0.0187
3276.25,0.0187
3276.00,0.0187
3275.75,0.0187
3275.50,0.0188
3275.25,0.0188
3275.00,0.0188
3274.75,0.0189
3274.50,0.0188
3274.25,0.0188
3274.00,0.0188
3273.75,0.0188
3273.50,0.0189
3273.25,0.0189
3273.00,0.0189
3272.75,0.0189
3272.50,0.0189
3272.25,0.0189
3272.00,0.0190
3271.75,0.0190
3271.50,0.0189
3271.25,0.0188
3271.00,0.0186
3270.75,0.0185
3270.50,0.0184
3270.25,0.0184
3270.00,0.0185
3269.75,0.0187
3269.50,0.0190
3269.25,0.0191
3269.00,0.0191
3268.75,0.0190
3268.50,0.0188
3268.25,0.0187
3268.00,0.0187
3267.75,0.0187
3267.50,0.0188
3267.25,0.0189
3267.00,0.0189
3266.75,0.0189
3266.50,0.0188
3266.25,0.0188
3266.00,0.0189
3265.75,0.0190
3265.50,0.0191
3265.25,0.0191
3265.00,0.0192
3264.75,0.0191
3264.50,0.0190
3264.25,0.0188
3264.00,0.0187
3263.75,0.0186
3263.50,0.0186
3263.25,0.0186
3263.00,0.0187
3262.75,0.0188
3262.50,0.0189
3262.25,0.0191
3262.00,0.0193
3261.75,0.0193
3261.50,0.0193
3261.25,0.0191
3261.00,0.0188
3260.75,0.0187
3260.50,0.0187
3260.25,0.0187
3260.00,0.0188
3259.75,0.0188
3259.50,0.0188
3259.25,0.0189
3259.00,0.0189
3258.75,0.0190
3258.50,0.0190
3258.25,0.0190
3258.00,0.0189
3257.75,0.0188
3257.50,0.0187
3257.25,0.0186
3257.00,0.0186
3256.75,0.0186
3256.50,0.0187
3256.25,0.0188
3256.00,0.0189
3255.75,0.0189
3255.50,0.0190
3255.25,0.0191
3255.00,0.0191
3254.75,0.0193
3254.50,0.0194
3254.25,0.0196
3254.00,0.0197
3253.75,0.0197
3253.50,0.0196
3253.25,0.0195
3253.00,0.0193
3252.75,0.0192
3252.50,0.0191
3252.25,0.0190
3252.00,0.0191
3251.75,0.0191
3251.50,0.0190
3251.25,0.0189
3251.00,0.0187
3250.75,0.0185
3250.50,0.0184
3250.25,0.0182
3250.00,0.0182
3249.75,0.0183
3249.50,0.0185
3249.25,0.0187
3249.00,0.0189
3248.75,0.0191
3248.50,0.0191
3248.25,0.0190
3248.00,0.0189
3247.75,0.0189
3247.50,0.0190
3247.25,0.0191
3247.00,0.0191
3246.75,0.0190
3246.50,0.0188
3246.25,0.0186
3246.00,0.0184
3245.75,0.0183
3245.50,0.0184
3245.25,0.0185
3245.00,0.0188
3244.75,0.0190
3244.50,0.0192
3244.25,0.0193
3244.00,0.0193
3243.75,0.0192
3243.50,0.0191
3243.25,0.0190
3243.00,0.0190
3242.75,0.0190
3242.50,0.0190
3242.25,0.0191
3242.00,0.0191
3241.75,0.0192
3241.50,0.0194
3241.25,0.0195
3241.00,0.0195
3240.75,0.0194
3240.50,0.0193
3240.25,0.0191
3240.00,0.0190
3239.75,0.0189
3239.50,0.0188
3239.25,0.0187
3239.00,0.0186
3238.75,0.0185
3238.50,0.0184
3238.25,0.0184
3238.00,0.0185
3237.75,0.0186
3237.50,0.0188
3237.25,0.0189
3237.00,0.0190
3236.75,0.0191
3236.50,0.0191
3236.25,0.0191
3236.00,0.0191
3235.75,0.0190
3235.50,0.0190
3235.25,0.0189
3235.00,0.0188
3234.75,0.0188
3234.50,0.0187
3234.25,0.0187
3234.00,0.0187
3233.75,0.0187
3233.50,0.0187
3233.25,0.0188
3233.00,0.0190
3232.75,0.0192
3232.50,0.0193
3232.25,0.0193
3232.00,0.0192
3231.75,0.0190
3231.50,0.0187
3231.25,0.0186
3231.00,0.0185
3230.75,0.0186
3230.50,0.0186
3230.25,0.0187
3230.00,0.0187
3229.75,0.0187
3229.50,0.0188
3229.25,0.0189
3229.00,0.0190
3228.75,0.0191
3228.50,0.0190
3228.25,0.0190
3228.00,0.0190
3227.75,0.0190
3227.50,0.0190
3227.25,0.0190
3227.00,0.0190
3226.75,0.0189
3226.50,0.0188
3226.25,0.0187
3226.00,0.0186
3225.75,0.0186
3225.50,0.0186
3225.25,0.0186
3225.00,0.0187
3224.75,0.0189
3224.50,0.0190
3224.25,0.0192
3224.00,0.0192
3223.75,0.0191
3223.50,0.0190
3223.25,0.0189
3223.00,0.0189
3222.75,0.0189
3222.50,0.0189
3222.25,0.0189
3222.00,0.0189
3221.75,0.0189
3221.50,0.0189
3221.25,0.0189
3221.00,0.0189
3220.75,0.0189
3220.50,0.0189
3220.25,0.0190
3220.00,0.0190
3219.75,0.0190
3219.50,0.0189
3219.25,0.0188
3219.00,0.0187
3218.75,0.0188
3218.50,0.0189
3218.25,0.0190
3218.00,0.0190
3217.75,0.0189
3217.50,0.0189
3217.25,0.0189
3217.00,0.0189
3216.75,0.0190
3216.50,0.0190
3216.25,0.0190
3216.00,0.0190
3215.75,0.0189
3215.50,0.0188
3215.25,0.0188
3215.00,0.0187
3214.75,0.0186
3214.50,0.0186
3214.25,0.0185
3214.00,0.0184
3213.75,0.0183
3213.50,0.0183
3213.25,0.0184
3213.00,0.0185
3212.75,0.0186
3212.50,0.0188
3212.25,0.0190
3212.00,0.0191
3211.75,0.0192
3211.50,0.0193
3211.25,0.0193
3211.00,0.0193
3210.75,0.0192
3210.50,0.0191
3210.25,0.0190
3210.00,0.0188
3209.75,0.0187
3209.50,0.0186
3209.25,0.0186
3209.00,0.0185
3208.75,0.0186
3208.50,0.0187
3208.25,0.0188
3208.00,0.0189
3207.75,0.0190
3207.50,0.0191
3207.25,0.0192
3207.00,0.0192
3206.75,0.0191
3206.50,0.0191
3206.25,0.0190
3206.00,0.0190
3205.75,0.0190
3205.50,0.0189
3205.25,0.0189
3205.00,0.0189
3204.75,0.0190
3204.50,0.0191
3204.25,0.0192
3204.00,0.0192
3203.75,0.0191
3203.50,0.0190
3203.25,0.0189
3203.00,0.0187
3202.75,0.0186
3202.50,0.0186
3202.25,0.0186
3202.00,0.0186
3201.75,0.0186
3201.50,0.0187
3201.25,0.0187
3201.00,0.0188
3200.75,0.0188
3200.50,0.0189
3200.25,0.0189
3200.00,0.0189
3199.75,0.0189
3199.50,0.0189
3199.25,0.0190
3199.00,0.0190
3198.75,0.0190
3198.50,0.0190
3198.25,0.0189
3198.00,0.0189
3197.75,0.0188
3197.50,0.0188
3197.25,0.0189
3197.00,0.0191
3196.75,0.0193
3196.50,0.0194
3196.25,0.0194
3196.00,0.0192
3195.75,0.0190
3195.50,0.0188
3195.25,0.0187
3195.00,0.0187
3194.75,0.0187
3194.50,0.0187
3194.25,0.0187
3194.00,0.0186
3193.75,0.0186
3193.50,0.0185
3193.25,0.0185
3193.00,0.0186
3192.75,0.0186
3192.50,0.0187
3192.25,0.0188
3192.00,0.0189
3191.75,0.0189
3191.50,0.0189
3191.25,0.0188
3191.00,0.0188
3190.75,0.0189
3190.50,0.0190
3190.25,0.0191
3190.00,0.0191
3189.75,0.0191
3189.50,0.0189
3189.25,0.0188
3189.00,0.0187
3188.75,0.0187
3188.50,0.0187
3188.25,0.0188
3188.00,0.0189
3187.75,0.0190
3187.50,0.0191
3187.25,0.0191
3187.00,0.0191
3186.75,0.0190
3186.50,0.0189
3186.25,0.0188
3186.00,0.0187
3185.75,0.0187
3185.50,0.0187
3185.25,0.0188
3185.00,0.0188
3184.75,0.0188
3184.50,0.0188
3184.25,0.0188
3184.00,0.0188
3183.75,0.0189
3183.50,0.0189
3183.25,0.0189
3183.00,0.0188
3182.75,0.0187
3182.50,0.0186
3182.25,0.0186
3182.00,0.0188
3181.75,0.0191
3181.50,0.0193
3181.25,0.0194
3181.00,0.0194
3180.75,0.0193
3180.50,0.0191
3180.25,0.0190
3180.00,0.0189
3179.75,0.0188
3179.50,0.0188
3179.25,0.0188
3179.00,0.0188
3178.75,0.0188
3178.50,0.0187
3178.25,0.0187
3178.00,0.0187
3177.75,0.0188
3177.50,0.0189
3177.25,0.0190
3177.00,0.0189
3176.75,0.0189
3176.50,0.0188
3176.25,0.0188
3176.00,0.0188
3175.75,0.0188
3175.50,0.0188
3175.25,0.0188
3175.00,0.0188
3174.75,0.0188
3174.50,0.0188
3174.25,0.0188
3174.00,0.0188
3173.75,0.0188
3173.50,0.0188
3173.25,0.0188
3173.00,0.0189
3172.75,0.0189
3172.50,0.0188
3172.25,0.0188
3172.00,0.0187
3171.75,0.0188
3171.50,0.0190
3171.25,0.0191
3171.00,0.0192
3170.75,0.0192
3170.50,0.0191
3170.25,0.0190
3170.00,0.0189
3169.75,0.0189
3169.50,0.0189
3169.25,0.0190
3169.00,0.0191
3168.75,0.0192
3168.50,0.0192
3168.25,0.0190
3168.00,0.0189
3167.75,0.0188
3167.50,0.0189
3167.25,0.0189
3167.00,0.0189
3166.75,0.0189
3166.50,0.0188
3166.25,0.0189
3166.00,0.0189
3165.75,0.0190
3165.50,0.0190
3165.25,0.0190
3165.00,0.0190
3164.75,0.0190
3164.50,0.0191
3164.25,0.0191
3164.00,0.0191
3163.75,0.0190
3163.50,0.0190
3163.25,0.0189
3163.00,0.0188
3162.75,0.0188
3162.50,0.0189
3162.25,0.0190
3162.00,0.0191
3161.75,0.0191
3161.50,0.0191
3161.25,0.0190
3161.00,0.0189
3160.75,0.0188
3160.50,0.0188
3160.25,0.0190
3160.00,0.0191
3159.75,0.0191
3159.50,0.0190
3159.25,0.0188
3159.00,0.0187
3158.75,0.0186
3158.50,0.0187
3158.25,0.0188
3158.00,0.0189
3157.75,0.0190
3157.50,0.0190
3157.25,0.0190
3157.00,0.0189
3156.75,0.0190
3156.50,0.0190
3156.25,0.0191
3156.00,0.0192
3155.75,0.0192
3155.50,0.0191
3155.25,0.0190
3155.00,0.0189
3154.75,0.0189
3154.50,0.0189
3154.25,0.0189
3154.00,0.0189
3153.75,0.0190
3153.50,0.0190
3153.25,0.0190
3153.00,0.0190
3152.75,0.0190
3152.50,0.0189
3152.25,0.0189
3152.00,0.0189
3151.75,0.0190
3151.50,0.0190
3151.25,0.0191
3151.00,0.0192
3150.75,0.0193
3150.50,0.0194
3150.25,0.0195
3150.00,0.0196
3149.75,0.0195
3149.50,0.0194
3149.25,0.0193
3149.00,0.0192
3148.75,0.0192
3148.50,0.0193
3148.25,0.0193
3148.00,0.0192
3147.75,0.0191
3147.50,0.0190
3147.25,0.0189
3147.00,0.0189
3146.75,0.0189
3146.50,0.0189
3146.25,0.0189
3146.00,0.0191
3145.75,0.0192
3145.50,0.0193
3145.25,0.0193
3145.00,0.0191
3144.75,0.0189
3144.50,0.0187
3144.25,0.0185
3144.00,0.0184
3143.75,0.0185
3143.50,0.0186
3143.25,0.0189
3143.00,0.0191
3142.75,0.0193
3142.50,0.0194
3142.25,0.0193
3142.00,0.0192
3141.75,0.0192
3141.50,0.0191
3141.25,0.0189
3141.00,0.0187
3140.75,0.0185
3140.50,0.0185
3140.25,0.0186
3140.00,0.0187
3139.75,0.0188
3139.50,0.0189
3139.25,0.0189
3139.00,0.0189
3138.75,0.0190
3138.50,0.0191
3138.25,0.0192
3138.00,0.0192
3137.75,0.0192
3137.50,0.0191
3137.25,0.0190
3137.00,0.0190
3136.75,0.0189
3136.50,0.0189
3136.25,0.0188
3136.00,0.0188
3135.75,0.0189
3135.50,0.0190
3135.25,0.0190
3135.00,0.0191
3134.75,0.0191
3134.50,0.0192
3134.25,0.0193
3134.00,0.0194
3133.75,0.0195
3133.50,0.0194
3133.25,0.0194
3133.00,0.0193
3132.75,0.0193
3132.50,0.0194
3132.25,0.0195
3132.00,0.0195
3131.75,0.0193
3131.50,0.0191
3131.25,0.0189
3131.00,0.0188
3130.75,0.0189
3130.50,0.0191
3130.25,0.0193
3130.00,0.0193
3129.75,0.0193
3129.50,0.0192
3129.25,0.0192
3129.00,0.0192
3128.75,0.0192
3128.50,0.0191
3128.25,0.0190
3128.00,0.0188
3127.75,0.0187
3127.50,0.0187
3127.25,0.0188
3127.00,0.0190
3126.75,0.0191
3126.50,0.0191
3126.25,0.0191
3126.00,0.0190
3125.75,0.0189
3125.50,0.0189
3125.25,0.0190
3125.00,0.0191
3124.75,0.0193
3124.50,0.0195
3124.25,0.0196
3124.00,0.0196
3123.75,0.0196
3123.50,0.0195
3123.25,0.0194
3123.00,0.0194
3122.75,0.0194
3122.50,0.0194
3122.25,0.0194
3122.00,0.0194
3121.75,0.0194
3121.50,0.0194
3121.25,0.0195
3121.00,0.0195
3120.75,0.0195
3120.50,0.0194
3120.25,0.0193
3120.00,0.0191
3119.75,0.0190
3119.50,0.0190
3119.25,0.0190
3119.00,0.0191
3118.75,0.0193
3118.50,0.0194
3118.25,0.0195
3118.00,0.0194
3117.75,0.0194
3117.50,0.0193
3117.25,0.0192
3117.00,0.0192
3116.75,0.0191
3116.50,0.0192
3116.25,0.0192
3116.00,0.0193
3115.75,0.0193
3115.50,0.0193
3115.25,0.0192
3115.00,0.0191
3114.75,0.0192
3114.50,0.0192
3114.25,0.0192
3114.00,0.0192
3113.75,0.0192
3113.50,0.0192
3113.25,0.0192
3113.00,0.0193
3112.75,0.0193
3112.50,0.0193
3112.25,0.0193
3112.00,0.0193
3111.75,0.0194
3111.50,0.0195
3111.25,0.0196
3111.00,0.0197
3110.75,0.0197
3110.50,0.0197
3110.25,0.0195
3110.00,0.0193
3109.75,0.0191
3109.50,0.0190
3109.25,0.0189
3109.00,0.0190
3108.75,0.0190
3108.50,0.0192
3108.25,0.0193
3108.00,0.0194
3107.75,0.0195
3107.50,0.0196
3107.25,0.0197
3107.00,0.0197
3106.75,0.0198
3106.50,0.0198
3106.25,0.0197
3106.00,0.0196
3105.75,0.0194
3105.50,0.0192
3105.25,0.0190
3105.00,0.0190
3104.75,0.0190
3104.50,0.0191
3104.25,0.0191
3104.00,0.0191
3103.75,0.0191
3103.50,0.0192
3103.25,0.0192
3103.00,0.0192
3102.75,0.0193
3102.50,0.0193
3102.25,0.0194
3102.00,0.0194
3101.75,0.0194
3101.50,0.0193
3101.25,0.0193
3101.00,0.0193
3100.75,0.0193
3100.50,0.0193
3100.25,0.0193
3100.00,0.0194
3099.75,0.0194
3099.50,0.0195
3099.25,0.0196
3099.00,0.0196
3098.75,0.0196
3098.50,0.0195
3098.25,0.0194
3098.00,0.0194
3097.75,0.0193
3097.50,0.0192
3097.25,0.0191
3097.00,0.0191
3096.75,0.0191
3096.50,0.0192
3096.25,0.0192
3096.00,0.0193
3095.75,0.0193
3095.50,0.0194
3095.25,0.0195
3095.00,0.0195
3094.75,0.0195
3094.50,0.0195
3094.25,0.0194
3094.00,0.0194
3093.75,0.0193
3093.50,0.0193
3093.25,0.0193
3093.00,0.0193
3092.75,0.0193
3092.50,0.0193
3092.25,0.0194
3092.00,0.0195
3091.75,0.0195
3091.50,0.0194
3091.25,0.0192
3091.00,0.0190
3090.75,0.0190
3090.50,0.0190
3090.25,0.0191
3090.00,0.0192
3089.75,0.0193
3089.50,0.0192
3089.25,0.0192
3089.00,0.0192
3088.75,0.0191
3088.50,0.0191
3088.25,0.0191
3088.00,0.0192
3087.75,0.0194
3087.50,0.0195
3087.25,0.0196
3087.00,0.0196
3086.75,0.0196
3086.50,0.0194
3086.25,0.0193
3086.00,0.0193
3085.75,0.0192
3085.50,0.0192
3085.25,0.0192
3085.00,0.0192
3084.75,0.0192
3084.50,0.0193
3084.25,0.0193
3084.00,0.0194
3083.75,0.0195
3083.50,0.0195
3083.25,0.0195
3083.00,0.0195
3082.75,0.0195
3082.50,0.0195
3082.25,0.0194
3082.00,0.0194
3081.75,0.0193
3081.50,0.0192
3081.25,0.0191
3081.00,0.0191
3080.75,0.0192
3080.50,0.0192
3080.25,0.0192
3080.00,0.0191
3079.75,0.0191
3079.50,0.0192
3079.25,0.0193
3079.00,0.0194
3078.75,0.0195
3078.50,0.0195
3078.25,0.0195
3078.00,0.0195
3077.75,0.0195
3077.50,0.0194
3077.25,0.0194
3077.00,0.0194
3076.75,0.0195
3076.50,0.0195
3076.25,0.0196
3076.00,0.0195
3075.75,0.0195
3075.50,0.0194
3075.25,0.0193
3075.00,0.0192
3074.75,0.0192
3074.50,0.0193
3074.25,0.0194
3074.00,0.0196
3073.75,0.0197
3073.50,0.0197
3073.25,0.0197
3073.00,0.0196
3072.75,0.0196
3072.50,0.0196
3072.25,0.0196
3072.00,0.0196
3071.75,0.0196
3071.50,0.0195
3071.25,0.0194
3071.00,0.0194
3070.75,0.0194
3070.50,0.0194
3070.25,0.0194
3070.00,0.0194
3069.75,0.0194
3069.50,0.0195
3069.25,0.0195
3069.00,0.0194
3068.75,0.0194
3068.50,0.0193
3068.25,0.0192
3068.00,0.0192
3067.75,0.0192
3067.50,0.0194
3067.25,0.0195
3067.00,0.0195
3066.75,0.0194
3066.50,0.0193
3066.25,0.0191
3066.00,0.0191
3065.75,0.0191
3065.50,0.0193
3065.25,0.0194
3065.00,0.0195
3064.75,0.0195
3064.50,0.0195
3064.25,0.0195
3064.00,0.0194
3063.75,0.0194
3063.50,0.0193
3063.25,0.0193
3063.00,0.0193
3062.75,0.0194
3062.50,0.0195
3062.25,0.0195
3062.00,0.0195
3061.75,0.0195
3061.50,0.0195
3061.25,0.0194
3061.00,0.0193
3060.75,0.0194
3060.50,0.0195
3060.25,0.0196
3060.00,0.0197
3059.75,0.0197
3059.50,0.0197
3059.25,0.0197
3059.00,0.0197
3058.75,0.0197
3058.50,0.0197
3058.25,0.0198
3058.00,0.0198
3057.75,0.0198
3057.50,0.0197
3057.25,0.0197
3057.00,0.0196
3056.75,0.0195
3056.50,0.0195
3056.25,0.0194
3056.00,0.0194
3055.75,0.0196
3055.50,0.0198
3055.25,0.0199
3055.00,0.0200
3054.75,0.0200
3054.50,0.0199
3054.25,0.0199
3054.00,0.0199
3053.75,0.0199
3053.50,0.0199
3053.25,0.0198
3053.00,0.0198
3052.75,0.0198
3052.50,0.0199
3052.25,0.0200
3052.00,0.0200
3051.75,0.0199
3051.50,0.0198
3051.25,0.0197
3051.00,0.0196
3050.75,0.0195
3050.50,0.0195
3050.25,0.0195
3050.00,0.0196
3049.75,0.0197
3049.50,0.0197
3049.25,0.0198
3049.00,0.0198
3048.75,0.0198
3048.50,0.0198
3048.25,0.0198
3048.00,0.0198
3047.75,0.0197
3047.50,0.0196
3047.25,0.0196
3047.00,0.0196
3046.75,0.0196
3046.50,0.0196
3046.25,0.0196
3046.00,0.0196
3045.75,0.0195
3045.50,0.0196
3045.25,0.0196
3045.00,0.0196
3044.75,0.0195
3044.50,0.0194
3044.25,0.0192
3044.00,0.0191
3043.75,0.0189
3043.50,0.0189
3043.25,0.0190
3043.00,0.0192
3042.75,0.0193
3042.50,0.0194
3042.25,0.0195
3042.00,0.0195
3041.75,0.0196
3041.50,0.0196
3041.25,0.0196
3041.00,0.0195
3040.75,0.0194
3040.50,0.0193
3040.25,0.0193
3040.00,0.0192
3039.75,0.0192
3039.50,0.0193
3039.25,0.0194
3039.00,0.0195
3038.75,0.0195
3038.50,0.0196
3038.25,0.0196
3038.00,0.0196
3037.75,0.0197
3037.50,0.0198
3037.25,0.0198
3037.00,0.0199
3036.75,0.0199
3036.50,0.0198
3036.25,0.0197
3036.00,0.0196
3035.75,0.0195
3035.50,0.0193
3035.25,0.0192
3035.00,0.0190
3034.75,0.0190
3034.50,0.0190
3034.25,0.0192
3034.00,0.0193
3033.75,0.0194
3033.50,0.0194
3033.25,0.0194
3033.00,0.0192
3032.75,0.0191
3032.50,0.0190
3032.25,0.0190
3032.00,0.0190
3031.75,0.0191
3031.50,0.0193
3031.25,0.0194
3031.00,0.0195
3030.75,0.0196
3030.50,0.0196
3030.25,0.0195
3030.00,0.0194
3029.75,0.0193
3029.50,0.0193
3029.25,0.0193
3029.00,0.0194
3028.75,0.0194
3028.50,0.0194
3028.25,0.0194
3028.00,0.0194
3027.75,0.0194
3027.50,0.0194
3027.25,0.0195
3027.00,0.0195
3026.75,0.0196
3026.50,0.0195
3026.25,0.0195
3026.00,0.0194
3025.75,0.0194
3025.50,0.0193
3025.25,0.0193
3025.00,0.0193
3024.75,0.0193
3024.50,0.0194
3024.25,0.0195
3024.00,0.0196
3023.75,0.0196
3023.50,0.0195
3023.25,0.0194
3023.00,0.0193
3022.75,0.0193
3022.50,0.0194
3022.25,0.0194
3022.00,0.0193
3021.75,0.0193
3021.50,0.0192
3021.25,0.0192
3021.00,0.0192
3020.75,0.0193
3020.50,0.0195
3020.25,0.0195
3020.00,0.0194
3019.75,0.0193
3019.50,0.0190
3019.25,0.0189
3019.00,0.0190
3018.75,0.0191
3018.50,0.0193
3018.25,0.0194
3018.00,0.0195
3017.75,0.0196
3017.50,0.0197
3017.25,0.0197
3017.00,0.0195
3016.75,0.0193
3016.50,0.0192
3016.25,0.0192
3016.00,0.0193
3015.75,0.0195
3015.50,0.0196
3015.25,0.0196
3015.00,0.0196
3014.75,0.0195
3014.50,0.0194
3014.25,0.0194
3014.00,0.0194
3013.75,0.0195
3013.50,0.0197
3013.25,0.0199
3013.00,0.0200
3012.75,0.0200
3012.50,0.0199
3012.25,0.0199
3012.00,0.0199
3011.75,0.0200
3011.50,0.0201
3011.25,0.0202
3011.00,0.0202
3010.75,0.0202
3010.50,0.0201
3010.25,0.0201
3010.00,0.0200
3009.75,0.0199
3009.50,0.0198
3009.25,0.0197
3009.00,0.0198
3008.75,0.0198
3008.50,0.0199
3008.25,0.0199
3008.00,0.0199
3007.75,0.0198
3007.50,0.0197
3007.25,0.0197
3007.00,0.0196
3006.75,0.0196
3006.50,0.0196
3006.25,0.0195
3006.00,0.0196
3005.75,0.0197
3005.50,0.0198
3005.25,0.0199
3005.00,0.0200
3004.75,0.0200
3004.50,0.0201
3004.25,0.0201
3004.00,0.0200
3003.75,0.0199
3003.50,0.0198
3003.25,0.0197
3003.00,0.0196
3002.75,0.0196
3002.50,0.0197
3002.25,0.0199
3002.00,0.0200
3001.75,0.0200
3001.50,0.0200
3001.25,0.0199
3001.00,0.0198
3000.75,0.0197
3000.50,0.0195
3000.25,0.0195
3000.00,0.0195
2999.75,0.0195
2999.50,0.0195
2999.25,0.0196
2999.00,0.0197
2998.75,0.0198
2998.50,0.0199
2998.25,0.0199
2998.00,0.0199
2997.75,0.0199
2997.50,0.0199
2997.25,0.0199
2997.00,0.0199
2996.75,0.0199
2996.50,0.0198
2996.25,0.0198
2996.00,0.0198
2995.75,0.0199
2995.50,0.0199
2995.25,0.0200
2995.00,0.0201
2994.75,0.0202
2994.50,0.0203
2994.25,0.0204
2994.00,0.0205
2993.75,0.0206
2993.50,0.0206
2993.25,0.0205
2993.00,0.0203
2992.75,0.0202
2992.50,0.0201
2992.25,0.0200
2992.00,0.0201
2991.75,0.0203
2991.50,0.0206
2991.25,0.0209
2991.00,0.0211
2990.75,0.0211
2990.50,0.0211
2990.25,0.0211
2990.00,0.0211
2989.75,0.0210
2989.50,0.0210
2989.25,0.0209
2989.00,0.0209
2988.75,0.0209
2988.50,0.0210
2988.25,0.0211
2988.00,0.0213
2987.75,0.0214
2987.50,0.0215
2987.25,0.0214
2987.00,0.0213
2986.75,0.0211
2986.50,0.0210
2986.25,0.0210
2986.00,0.0212
2985.75,0.0214
2985.50,0.0217
2985.25,0.0218
2985.00,0.0219
2984.75,0.0220
2984.50,0.0220
2984.25,0.0222
2984.00,0.0223
2983.75,0.0225
2983.50,0.0226
2983.25,0.0226
2983.00,0.0226
2982.75,0.0226
2982.50,0.0226
2982.25,0.0227
2982.00,0.0228
2981.75,0.0230
2981.50,0.0231
2981.25,0.0233
2981.00,0.0234
2980.75,0.0235
2980.50,0.0236
2980.25,0.0237
2980.00,0.0239
2979.75,0.0241
2979.50,0.0243
2979.25,0.0245
2979.00,0.0247
2978.75,0.0248
2978.50,0.0248
2978.25,0.0249
2978.00,0.0251
2977.75,0.0252
2977.50,0.0255
2977.25,0.0258
2977.00,0.0262
2976.75,0.0265
2976.50,0.0268
2976.25,0.0271
2976.00,0.0274
2975.75,0.0278
2975.50,0.0282
2975.25,0.0285
2975.00,0.0289
2974.75,0.0292
2974.50,0.0295
2974.25,0.0299
2974.00,0.0302
2973.75,0.0305
2973.50,0.0309
2973.25,0.0312
2973.00,0.0317
2972.75,0.0322
2972.50,0.0327
2972.25,0.0332
2972.00,0.0336
2971.75,0.0341
2971.50,0.0346
2971.25,0.0352
2971.00,0.0358
2970.75,0.0364
2970.50,0.0371
2970.25,0.0377
2970.00,0.0383
2969.75,0.0390
2969.50,0.0396
2969.25,0.0403
2969.00,0.0409
2968.75,0.0417
2968.50,0.0424
2968.25,0.0431
2968.00,0.0438
2967.75,0.0445
2967.50,0.0452
2967.25,0.0458
2967.00,0.0465
2966.75,0.0471
2966.50,0.0477
2966.25,0.0483
2966.00,0.0490
2965.75,0.0496
2965.50,0.0503
2965.25,0.0509
2965.00,0.0516
2964.75,0.0523
2964.50,0.0529
2964.25,0.0535
2964.00,0.0541
2963.75,0.0545
2963.50,0.0549
2963.25,0.0551
2963.00,0.0553
2962.75,0.0554
2962.50,0.0555
2962.25,0.0556
2962.00,0.0558
2961.75,0.0559
2961.50,0.0559
2961.25,0.0559
2961.00,0.0556
2960.75,0.0553
2960.50,0.0548
2960.25,0.0543
2960.00,0.0538
2959.75,0.0533
2959.50,0.0529
2959.25,0.0525
2959.00,0.0520
2958.75,0.0515
2958.50,0.0510
2958.25,0.0504
2958.00,0.0497
2957.75,0.0490
2957.50,0.0482
2957.25,0.0474
2957.00,0.0466
2956.75,0.0458
2956.50,0.0451
2956.25,0.0444
2956.00,0.0437
2955.75,0.0431
2955.50,0.0425
2955.25,0.0419
2955.00,0.0413
2954.75,0.0407
2954.50,0.0401
2954.25,0.0394
2954.00,0.0388
2953.75,0.0381
2953.50,0.0375
2953.25,0.0369
2953.00,0.0364
2952.75,0.0359
2952.50,0.0355
2952.25,0.0351
2952.00,0.0346
2951.75,0.0342
2951.50,0.0337
2951.25,0.0332
2951.00,0.0329
2950.75,0.0326
2950.50,0.0323
2950.25,0.0319
2950.00,0.0315
2949.75,0.0311
2949.50,0.0307
2949.25,0.0305
2949.00,0.0303
2948.75,0.0301
2948.50,0.0298
2948.25,0.0294
2948.00,0.0289
2947.75,0.0284
2947.50,0.0279
2947.25,0.0275
2947.00,0.0273
2946.75,0.0273
2946.50,0.0273
2946.25,0.0273
2946.00,0.0273
2945.75,0.0271
2945.50,0.0270
2945.25,0.0267
2945.00,0.0265
2944.75,0.0263
2944.50,0.0261
2944.25,0.0260
2944.00,0.0260
2943.75,0.0259
2943.50,0.0258
2943.25,0.0257
2943.00,0.0254
2942.75,0.0252
2942.50,0.0250
2942.25,0.0248
2942.00,0.0248
2941.75,0.0247
2941.50,0.0246
2941.25,0.0245
2941.00,0.0244
2940.75,0.0245
2940.50,0.0245
2940.25,0.0244
2940.00,0.0243
2939.75,0.0241
2939.50,0.0239
2939.25,0.0238
2939.00,0.0237
2938.75,0.0237
2938.50,0.0237
2938.25,0.0237
2938.00,0.0236
2937.75,0.0235
2937.50,0.0233
2937.25,0.0231
2937.00,0.0229
2936.75,0.0229
2936.50,0.0228
2936.25,0.0227
2936.00,0.0226
2935.75,0.0225
2935.50,0.0224
2935.25,0.0223
2935.00,0.0223
2934.75,0.0224
2934.50,0.0224
2934.25,0.0224
2934.00,0.0225
2933.75,0.0226
2933.50,0.0226
2933.25,0.0226
2933.00,0.0225
2932.75,0.0224
2932.50,0.0223
2932.25,0.0222
2932.00,0.0222
2931.75,0.0221
2931.50,0.0221
2931.25,0.0221
2931.00,0.0221
2930.75,0.0221
2930.50,0.0221
2930.25,0.0221
2930.00,0.0221
2929.75,0.0220
2929.50,0.0219
2929.25,0.0219
2929.00,0.0218
2928.75,0.0218
2928.50,0.0218
2928.25,0.0217
2928.00,0.0217
2927.75,0.0218
2927.50,0.0219
2927.25,0.0219
2927.00,0.0219
2926.75,0.0218
2926.50,0.0217
2926.25,0.0215
2926.00,0.0213
2925.75,0.0212
2925.50,0.0213
2925.25,0.0213
2925.00,0.0214
2924.75,0.0215
2924.50,0.0216
2924.25,0.0217
2924.00,0.0217
2923.75,0.0217
2923.50,0.0216
2923.25,0.0213
2923.00,0.0210
2922.75,0.0209
2922.50,0.0208
2922.25,0.0208
2922.00,0.0209
2921.75,0.0211
2921.50,0.0212
2921.25,0.0214
2921.00,0.0214
2920.75,0.0215
2920.50,0.0214
2920.25,0.0214
2920.00,0.0214
2919.75,0.0214
2919.50,0.0216
2919.25,0.0217
2919.00,0.0218
2918.75,0.0219
2918.50,0.0219
2918.25,0.0220
2918.00,0.0220
2917.75,0.0220
2917.50,0.0220
2917.25,0.0218
2917.00,0.0217
2916.75,0.0215
2916.50,0.0214
2916.25,0.0215
2916.00,0.0216
2915.75,0.0218
2915.50,0.0219
2915.25,0.0220
2915.00,0.0221
2914.75,0.0222
2914.50,0.0222
2914.25,0.0222
2914.00,0.0222
2913.75,0.0221
2913.50,0.0221
2913.25,0.0221
2913.00,0.0223
2912.75,0.0225
2912.50,0.0226
2912.25,0.0228
2912.00,0.0229
2911.75,0.0230
2911.50,0.0230
2911.25,0.0230
2911.00,0.0230
2910.75,0.0230
2910.50,0.0229
2910.25,0.0229
2910.00,0.0229
2909.75,0.0230
2909.50,0.0232
2909.25,0.0234
2909.00,0.0236
2908.75,0.0237
2908.50,0.0238
2908.25,0.0239
2908.00,0.0239
2907.75,0.0240
2907.50,0.0240
2907.25,0.0242
2907.00,0.0243
2906.75,0.0245
2906.50,0.0246
2906.25,0.0247
2906.00,0.0247
2905.75,0.0247
2905.50,0.0247
2905.25,0.0246
2905.00,0.0246
2904.75,0.0245
2904.50,0.0245
2904.25,0.0244
2904.00,0.0244
2903.75,0.0244
2903.50,0.0243
2903.25,0.0243
2903.00,0.0243
2902.75,0.0242
2902.50,0.0241
2902.25,0.0240
2902.00,0.0240
2901.75,0.0240
2901.50,0.0240
2901.25,0.0240
2901.00,0.0240
2900.75,0.0240
2900.50,0.0240
2900.25,0.0240
2900.00,0.0240
2899.75,0.0241
2899.50,0.0240
2899.25,0.0239
2899.00,0.0238
2898.75,0.0236
2898.50,0.0235
2898.25,0.0234
2898.00,0.0234
2897.75,0.0233
2897.50,0.0233
2897.25,0.0233
2897.00,0.0232
2896.75,0.0231
2896.50,0.0230
2896.25,0.0230
2896.00,0.0230
2895.75,0.0230
2895.50,0.0230
2895.25,0.0229
2895.00,0.0228
2894.75,0.0226
2894.50,0.0224
2894.25,0.0223
2894.00,0.0223
2893.75,0.0223
2893.50,0.0223
2893.25,0.0223
2893.00,0.0222
2892.75,0.0220
2892.50,0.0219
2892.25,0.0217
2892.00,0.0217
2891.75,0.0218
2891.50,0.0218
2891.25,0.0218
2891.00,0.0218
2890.75,0.0217
2890.50,0.0216
2890.25,0.0216
2890.00,0.0215
2889.75,0.0214
2889.50,0.0213
2889.25,0.0212
2889.00,0.0211
2888.75,0.0211
2888.50,0.0210
2888.25,0.0211
2888.00,0.0211
2887.75,0.0212
2887.50,0.0214
2887.25,0.0215
2887.00,0.0215
2886.75,0.0215
2886.50,0.0213
2886.25,0.0212
2886.00,0.0210
2885.75,0.0210
2885.50,0.0212
2885.25,0.0213
2885.00,0.0214
2884.75,0.0214
2884.50,0.0213
2884.25,0.0212
2884.00,0.0211
2883.75,0.0211
2883.50,0.0211
2883.25,0.0211
2883.00,0.0210
2882.75,0.0210
2882.50,0.0210
2882.25,0.0209
2882.00,0.0208
2881.75,0.0206
2881.50,0.0205
2881.25,0.0204
2881.00,0.0204
2880.75,0.0206
2880.50,0.0208
2880.25,0.0210
2880.00,0.0212
2879.75,0.0212
2879.50,0.0210
2879.25,0.0208
2879.00,0.0207
2878.75,0.0206
2878.50,0.0206
2878.25,0.0205
2878.00,0.0205
2877.75,0.0204
2877.50,0.0203
2877.25,0.0203
2877.00,0.0204
2876.75,0.0204
2876.50,0.0204
2876.25,0.0205
2876.00,0.0205
2875.75,0.0205
2875.50,0.0205
2875.25,0.0204
2875.00,0.0203
2874.75,0.0203
2874.50,0.0204
2874.25,0.0206
2874.00,0.0207
2873.75,0.0208
2873.50,0.0208
2873.25,0.0207
2873.00,0.0207
2872.75,0.0206
2872.50,0.0206
2872.25,0.0206
2872.00,0.0206
2871.75,0.0206
2871.50,0.0206
2871.25,0.0205
2871.00,0.0204
2870.75,0.0203
2870.50,0.0202
2870.25,0.0202
2870.00,0.0201
2869.75,0.0200
2869.50,0.0200
2869.25,0.0200
2869.00,0.0200
2868.75,0.0201
2868.50,0.0202
2868.25,0.0203
2868.00,0.0204
2867.75,0.0205
2867.50,0.0205
2867.25,0.0205
2867.00,0.0205
2866.75,0.0204
2866.50,0.0202
2866.25,0.0201
2866.00,0.0200
2865.75,0.0199
2865.50,0.0199
2865.25,0.0200
2865.00,0.0200
2864.75,0.0201
2864.50,0.0202
2864.25,0.0204
2864.00,0.0205
2863.75,0.0207
2863.50,0.0206
2863.25,0.0205
2863.00,0.0203
2862.75,0.0201
2862.50,0.0199
2862.25,0.0199
2862.00,0.0200
2861.75,0.0201
2861.50,0.0202
2861.25,0.0202
2861.00,0.0201
2860.75,0.0200
2860.50,0.0199
2860.25,0.0198
2860.00,0.0198
2859.75,0.0198
2859.50,0.0199
2859.25,0.0200
2859.00,0.0201
2858.75,0.0202
2858.50,0.0201
2858.25,0.0201
2858.00,0.0200
2857.75,0.0200
2857.50,0.0200
2857.25,0.0199
2857.00,0.0199
2856.75,0.0199
2856.50,0.0198
2856.25,0.0199
2856.00,0.0200
2855.75,0.0201
2855.50,0.0202
2855.25,0.0203
2855.00,0.0202
2854.75,0.0200
2854.50,0.0198
2854.25,0.0196
2854.00,0.0195
2853.75,0.0195
2853.50,0.0197
2853.25,0.0199
2853.00,0.0200
2852.75,0.0201
2852.50,0.0201
2852.25,0.0201
2852.00,0.0201
2851.75,0.0201
2851.50,0.0201
2851.25,0.0200
2851.00,0.0200
2850.75,0.0200
2850.50,0.0200
2850.25,0.0200
2850.00,0.0199
2849.75,0.0199
2849.50,0.0198
2849.25,0.0197
2849.00,0.0197
2848.75,0.0197
2848.50,0.0197
2848.25,0.0198
2848.00,0.0199
2847.75,0.0201
2847.50,0.0202
2847.25,0.0202
2847.00,0.0202
2846.75,0.0202
2846.50,0.0202
2846.25,0.0203
2846.00,0.0203
2845.75,0.0203
2845.50,0.0202
2845.25,0.0200
2845.00,0.0199
2844.75,0.0198
2844.50,0.0198
2844.25,0.0198
2844.00,0.0198
2843.75,0.0199
2843.50,0.0200
2843.25,0.0201
2843.00,0.0201
2842.75,0.0201
2842.50,0.0201
2842.25,0.0202
2842.00,0.0202
2841.75,0.0203
2841.50,0.0203
2841.25,0.0202
2841.00,0.0201
2840.75,0.0200
2840.50,0.0199
2840.25,0.0199
2840.00,0.0199
2839.75,0.0199
2839.50,0.0201
2839.25,0.0202
2839.00,0.0204
2838.75,0.0205
2838.50,0.0205
2838.25,0.0205
2838.00,0.0204
2837.75,0.0203
2837.50,0.0202
2837.25,0.0202
2837.00,0.0201
2836.75,0.0200
2836.50,0.0199
2836.25,0.0198
2836.00,0.0198
2835.75,0.0198
2835.50,0.0198
2835.25,0.0198
2835.00,0.0198
2834.75,0.0198
2834.50,0.0198
2834.25,0.0198
2834.00,0.0198
2833.75,0.0198
2833.50,0.0198
2833.25,0.0199
2833.00,0.0200
2832.75,0.0200
2832.50,0.0200
2832.25,0.0200
2832.00,0.0200
2831.75,0.0200
2831.50,0.0199
2831.25,0.0199
2831.00,0.0199
2830.75,0.0198
2830.50,0.0198
2830.25,0.0198
2830.00,0.0199
2829.75,0.0199
2829.50,0.0200
2829.25,0.0200
2829.00,0.0201
2828.75,0.0201
2828.50,0.0201
2828.25,0.0201
2828.00,0.0201
2827.75,0.0201
2827.50,0.0201
2827.25,0.0201
2827.00,0.0201
2826.75,0.0200
2826.50,0.0199
2826.25,0.0198
2826.00,0.0198
2825.75,0.0198
2825.50,0.0200
2825.25,0.0202
2825.00,0.0204
2824.75,0.0204
2824.50,0.0203
2824.25,0.0202
2824.00,0.0200
2823.75,0.0200
2823.50,0.0199
2823.25,0.0198
2823.00,0.0198
2822.75,0.0198
2822.50,0.0198
2822.25,0.0199
2822.00,0.0199
2821.75,0.0200
2821.50,0.0201
2821.25,0.0202
2821.00,0.0202
2820.75,0.0202
2820.50,0.0201
2820.25,0.0200
2820.00,0.0200
2819.75,0.0200
2819.50,0.0200
2819.25,0.0201
2819.00,0.0201
2818.75,0.0202
2818.50,0.0202
2818.25,0.0202
2818.00,0.0202
2817.75,0.0201
2817.50,0.0201
2817.25,0.0200
2817.00,0.0199
2816.75,0.0198
2816.50,0.0198
2816.25,0.0199
2816.00,0.0200
2815.75,0.0201
2815.50,0.0202
2815.25,0.0202
2815.00,0.0203
2814.75,0.0203
2814.50,0.0202
2814.25,0.0202
2814.00,0.0201
2813.75,0.0201
2813.50,0.0201
2813.25,0.0201
2813.00,0.0201
2812.75,0.0200
2812.50,0.0199
2812.25,0.0198
2812.00,0.0199
2811.75,0.0201
2811.50,0.0202
2811.25,0.0203
2811.00,0.0202
2810.75,0.0201
2810.50,0.0199
2810.25,0.0197
2810.00,0.0197
2809.75,0.0197
2809.50,0.0198
2809.25,0.0199
2809.00,0.0201
2808.75,0.0202
2808.50,0.0203
2808.25,0.0203
2808.00,0.0203
2807.75,0.0202
2807.50,0.0201
2807.25,0.0200
2807.00,0.0200
2806.75,0.0201
2806.50,0.0201
2806.25,0.0202
2806.00,0.0202
2805.75,0.0202
2805.50,0.0201
2805.25,0.0200
2805.00,0.0200
2804.75,0.0199
2804.50,0.0200
2804.25,0.0200
2804.00,0.0201
2803.75,0.0201
2803.50,0.0201
2803.25,0.0202
2803.00,0.0202
2802.75,0.0202
2802.50,0.0202
2802.25,0.0201
2802.00,0.0200
2801.75,0.0200
2801.50,0.0199
2801.25,0.0199
2801.00,0.0197
2800.75,0.0196
2800.50,0.0195
2800.25,0.0195
2800.00,0.0195
2799.75,0.0197
2799.50,0.0198
2799.25,0.0200
2799.00,0.0201
2798.75,0.0202
2798.50,0.0203
2798.25,0.0204
2798.00,0.0204
2797.75,0.0204
2797.50,0.0203
2797.25,0.0203
2797.00,0.0202
2796.75,0.0201
2796.50,0.0200
2796.25,0.0198
2796.00,0.0198
2795.75,0.0198
2795.50,0.0199
2795.25,0.0199
2795.00,0.0199
2794.75,0.0198
2794.50,0.0198
2794.25,0.0198
2794.00,0.0199
2793.75,0.0200
2793.50,0.0201
2793.25,0.0202
2793.00,0.0201
2792.75,0.0200
2792.50,0.0200
2792.25,0.0200
2792.00,0.0201
2791.75,0.0202
2791.50,0.0203
2791.25,0.0202
2791.00,0.0201
2790.75,0.0200
2790.50,0.0198
2790.25,0.0197
2790.00,0.0198
2789.75,0.0199
2789.50,0.0200
2789.25,0.0200
2789.00,0.0200
2788.75,0.0198
2788.50,0.0196
2788.25,0.0196
2788.00,0.0197
2787.75,0.0198
2787.50,0.0199
2787.25,0.0200
2787.00,0.0199
2786.75,0.0198
2786.50,0.0196
2786.25,0.0196
2786.00,0.0196
2785.75,0.0197
2785.50,0.0198
2785.25,0.0198
2785.00,0.0199
2784.75,0.0198
2784.50,0.0198
2784.25,0.0197
2784.00,0.0196
2783.75,0.0196
2783.50,0.0197
2783.25,0.0197
2783.00,0.0197
2782.75,0.0197
2782.50,0.0196
2782.25,0.0197
2782.00,0.0197
2781.75,0.0198
2781.50,0.0198
2781.25,0.0199
2781.00,0.0199
2780.75,0.0198
2780.50,0.0197
2780.25,0.0196
2780.00,0.0195
2779.75,0.0194
2779.50,0.0194
2779.25,0.0194
2779.00,0.0194
2778.75,0.0194
2778.50,0.0194
2778.25,0.0194
2778.00,0.0193
2777.75,0.0192
2777.50,0.0192
2777.25,0.0191
2777.00,0.0191
2776.75,0.0192
2776.50,0.0194
2776.25,0.0196
2776.00,0.0198
2775.75,0.0198
2775.50,0.0198
2775.25,0.0196
2775.00,0.0195
2774.75,0.0195
2774.50,0.0195
2774.25,0.0195
2774.00,0.0194
2773.75,0.0192
2773.50,0.0190
2773.25,0.0188
2773.00,0.0188
2772.75,0.0188
2772.50,0.0188
2772.25,0.0190
2772.00,0.0192
2771.75,0.0194
2771.50,0.0195
2771.25,0.0197
2771.00,0.0197
2770.75,0.0196
2770.50,0.0195
2770.25,0.0194
2770.00,0.0194
2769.75,0.0193
2769.50,0.0193
2769.25,0.0193
2769.00,0.0193
2768.75,0.0193
2768.50,0.0193
2768.25,0.0193
2768.00,0.0194
2767.75,0.0194
2767.50,0.0193
2767.25,0.0193
2767.00,0.0194
2766.75,0.0195
2766.50,0.0196
2766.25,0.0198
2766.00,0.0199
2765.75,0.0199
2765.50,0.0198
2765.25,0.0196
2765.00,0.0194
2764.75,0.0193
2764.50,0.0193
2764.25,0.0194
2764.00,0.0195
2763.75,0.0195
2763.50,0.0196
2763.25,0.0196
2763.00,0.0195
2762.75,0.0195
2762.50,0.0195
2762.25,0.0194
2762.00,0.0193
2761.75,0.0192
2761.50,0.0191
2761.25,0.0191
2761.00,0.0191
2760.75,0.0192
2760.50,0.0192
2760.25,0.0192
2760.00,0.0192
2759.75,0.0192
2759.50,0.0193
2759.25,0.0194
2759.00,0.0195
2758.75,0.0195
2758.50,0.0194
2758.25,0.0193
2758.00,0.0192
2757.75,0.0190
2757.50,0.0189
2757.25,0.0189
2757.00,0.0188
2756.75,0.0189
2756.50,0.0189
2756.25,0.0189
2756.00,0.0190
2755.75,0.0190
2755.50,0.0191
2755.25,0.0192
2755.00,0.0193
2754.75,0.0194
2754.50,0.0194
2754.25,0.0194
2754.00,0.0193
2753.75,0.0193
2753.50,0.0193
2753.25,0.0192
2753.00,0.0192
2752.75,0.0192
2752.50,0.0192
2752.25,0.0192
2752.00,0.0193
2751.75,0.0193
2751.50,0.0192
2751.25,0.0192
2751.00,0.0193
2750.75,0.0194
2750.50,0.0194
2750.25,0.0195
2750.00,0.0194
2749.75,0.0193
2749.50,0.0192
2749.25,0.0191
2749.00,0.0190
2748.75,0.0190
2748.50,0.0190
2748.25,0.0189
2748.00,0.0189
2747.75,0.0189
2747.50,0.0190
2747.25,0.0191
2747.00,0.0193
2746.75,0.0194
2746.50,0.0194
2746.25,0.0195
2746.00,0.0195
2745.75,0.0195
2745.50,0.0194
2745.25,0.0193
2745.00,0.0192
2744.75,0.0192
2744.50,0.0191
2744.25,0.0191
2744.00,0.0192
2743.75,0.0192
2743.50,0.0192
2743.25,0.0191
2743.00,0.0191
2742.75,0.0190
2742.50,0.0190
2742.25,0.0190
2742.00,0.0190
2741.75,0.0190
2741.50,0.0190
2741.25,0.0190
2741.00,0.0191
2740.75,0.0192
2740.50,0.0193
2740.25,0.0194
2740.00,0.0194
2739.75,0.0194
2739.50,0.0194
2739.25,0.0193
2739.00,0.0193
2738.75,0.0192
2738.50,0.0191
2738.25,0.0191
2738.00,0.0190
2737.75,0.0189
2737.50,0.0188
2737.25,0.0187
2737.00,0.0188
2736.75,0.0189
2736.50,0.0191
2736.25,0.0193
2736.00,0.0194
2735.75,0.0195
2735.50,0.0194
2735.25,0.0192
2735.00,0.0190
2734.75,0.0188
2734.50,0.0188
2734.25,0.0189
2734.00,0.0191
2733.75,0.0193
2733.50,0.0194
2733.25,0.0194
2733.00,0.0193
2732.75,0.0192
2732.50,0.0191
2732.25,0.0191
2732.00,0.0191
2731.75,0.0192
2731.50,0.0192
2731.25,0.0192
2731.00,0.0192
2730.75,0.0192
2730.50,0.0192
2730.25,0.0191
2730.00,0.0191
2729.75,0.0190
2729.50,0.0190
2729.25,0.0190
2729.00,0.0191
2728.75,0.0191
2728.50,0.0192
2728.25,0.0192
2728.00,0.0192
2727.75,0.0192
2727.50,0.0192
2727.25,0.0192
2727.00,0.0193
2726.75,0.0193
2726.50,0.0193
2726.25,0.0193
2726.00,0.0192
2725.75,0.0191
2725.50,0.0190
2725.25,0.0190
2725.00,0.0190
2724.75,0.0191
2724.50,0.0192
2724.25,0.0193
2724.00,0.0194
2723.75,0.0194
2723.50,0.0193
2723.25,0.0193
2723.00,0.0193
2722.75,0.0193
2722.50,0.0192
2722.25,0.0191
2722.00,0.0190
2721.75,0.0189
2721.50,0.0189
2721.25,0.0191
2721.00,0.0192
2720.75,0.0193
2720.50,0.0192
2720.25,0.0192
2720.00,0.0191
2719.75,0.0190
2719.50,0.0190
2719.25,0.0190
2719.00,0.0191
2718.75,0.0191
2718.50,0.0191
2718.25,0.0190
2718.00,0.0188
2717.75,0.0188
2717.50,0.0189
2717.25,0.0190
2717.00,0.0192
2716.75,0.0192
2716.50,0.0193
2716.25,0.0192
2716.00,0.0192
2715.75,0.0192
2715.50,0.0192
2715.25,0.0192
2715.00,0.0192
2714.75,0.0192
2714.50,0.0191
2714.25,0.0191
2714.00,0.0190
2713.75,0.0190
2713.50,0.0190
2713.25,0.0190
2713.00,0.0191
2712.75,0.0191
2712.50,0.0191
2712.25,0.0191
2712.00,0.0191
2711.75,0.0191
2711.50,0.0191
2711.25,0.0192
2711.00,0.0192
2710.75,0.0192
2710.50,0.0193
2710.25,0.0193
2710.00,0.0193
2709.75,0.0192
2709.50,0.0191
2709.25,0.0190
2709.00,0.0190
2708.75,0.0190
2708.50,0.0190
2708.25,0.0190
2708.00,0.0190
2707.75,0.0191
2707.50,0.0192
2707.25,0.0193
2707.00,0.0193
2706.75,0.0193
2706.50,0.0193
2706.25,0.0192
2706.00,0.0192
2705.75,0.0191
2705.50,0.0191
2705.25,0.0190
2705.00,0.0190
2704.75,0.0189
2704.50,0.0188
2704.25,0.0188
2704.00,0.0188
2703.75,0.0189
2703.50,0.0190
2703.25,0.0191
2703.00,0.0191
2702.75,0.0192
2702.50,0.0193
2702.25,0.0193
2702.00,0.0193
2701.75,0.0193
2701.50,0.0192
2701.25,0.0191
2701.00,0.0190
2700.75,0.0189
2700.50,0.0190
2700.25,0.0190
2700.00,0.0190
2699.75,0.0190
2699.50,0.0191
2699.25,0.0191
2699.00,0.0191
2698.75,0.0191
2698.50,0.0191
2698.25,0.0192
2698.00,0.0193
2697.75,0.0194
2697.50,0.0195
2697.25,0.0196
2697.00,0.0195
2696.75,0.0195
2696.50,0.0193
2696.25,0.0191
2696.00,0.0190
2695.75,0.0189
2695.50,0.0189
2695.25,0.0190
2695.00,0.0190
2694.75,0.0190
2694.50,0.0191
2694.25,0.0191
2694.00,0.0192
2693.75,0.0192
2693.50,0.0192
2693.25,0.0192
2693.00,0.0192
2692.75,0.0192
2692.50,0.0192
2692.25,0.0192
2692.00,0.0192
2691.75,0.0191
2691.50,0.0190
2691.25,0.0190
2691.00,0.0190
2690.75,0.0191
2690.50,0.0192
2690.25,0.0192
2690.00,0.0191
2689.75,0.0190
2689.50,0.0189
2689.25,0.0189
2689.00,0.0190
2688.75,0.0190
2688.50,0.0191
2688.25,0.0191
2688.00,0.0191
2687.75,0.0191
2687.50,0.0191
2687.25,0.0192
2687.00,0.0192
2686.75,0.0193
2686.50,0.0193
2686.25,0.0194
2686.00,0.0194
2685.75,0.0193
2685.50,0.0192
2685.25,0.0190
2685.00,0.0189
2684.75,0.0188
2684.50,0.0188
2684.25,0.0189
2684.00,0.0190
2683.75,0.0191
2683.50,0.0192
2683.25,0.0193
2683.00,0.0193
2682.75,0.0193
2682.50,0.0194
2682.25,0.0194
2682.00,0.0195
2681.75,0.0194
2681.50,0.0193
2681.25,0.0190
2681.00,0.0189
2680.75,0.0188
2680.50,0.0188
2680.25,0.0189
2680.00,0.0190
2679.75,0.0190
2679.50,0.0189
2679.25,0.0188
2679.00,0.0186
2678.75,0.0186
2678.50,0.0186
2678.25,0.0188
2678.00,0.0190
2677.75,0.0191
2677.50,0.0192
2677.25,0.0192
2677.00,0.0192
2676.75,0.0192
2676.50,0.0193
2676.25,0.0193
2676.00,0.0192
2675.75,0.0191
2675.50,0.0190
2675.25,0.0189
2675.00,0.0189
2674.75,0.0189
2674.50,0.0189
2674.25,0.0188
2674.00,0.0188
2673.75,0.0187
2673.50,0.0188
2673.25,0.0188
2673.00,0.0189
2672.75,0.0189
2672.50,0.0189
2672.25,0.0190
2672.00,0.0190
2671.75,0.0191
2671.50,0.0192
2671.25,0.0193
2671.00,0.0193
2670.75,0.0193
2670.50,0.0193
2670.25,0.0193
2670.00,0.0193
2669.75,0.0194
2669.50,0.0195
2669.25,0.0195
2669.00,0.0195
2668.75,0.0194
2668.50,0.0194
2668.25,0.0194
2668.00,0.0194
2667.75,0.0194
2667.50,0.0193
2667.25,0.0192
2667.00,0.0191
2666.75,0.0190
2666.50,0.0190
2666.25,0.0190
2666.00,0.0191
2665.75,0.0191
2665.50,0.0192
2665.25,0.0193
2665.00,0.0194
2664.75,0.0195
2664.50,0.0195
2664.25,0.0194
2664.00,0.0193
2663.75,0.0192
2663.50,0.0192
2663.25,0.0192
2663.00,0.0192
2662.75,0.0191
2662.50,0.0191
2662.25,0.0191
2662.00,0.0191
2661.75,0.0192
2661.50,0.0192
2661.25,0.0192
2661.00,0.0192
2660.75,0.0192
2660.50,0.0192
2660.25,0.0192
2660.00,0.0192
2659.75,0.0192
2659.50,0.0192
2659.25,0.0193
2659.00,0.0192
2658.75,0.0191
2658.50,0.0190
2658.25,0.0188
2658.00,0.0188
2657.75,0.0189
2657.50,0.0190
2657.25,0.0192
2657.00,0.0192
2656.75,0.0191
2656.50,0.0189
2656.25,0.0187
2656.00,0.0187
2655.75,0.0187
2655.50,0.0188
2655.25,0.0188
2655.00,0.0189
2654.75,0.0189
2654.50,0.0189
2654.25,0.0189
2654.00,0.0189
2653.75,0.0189
2653.50,0.0188
2653.25,0.0188
2653.00,0.0188
2652.75,0.0188
2652.50,0.0188
2652.25,0.0187
2652.00,0.0187
2651.75,0.0186
2651.50,0.0186
2651.25,0.0185
2651.00,0.0186
2650.75,0.0187
2650.50,0.0188
2650.25,0.0190
2650.00,0.0192
2649.75,0.0193
2649.50,0.0192
2649.25,0.0191
2649.00,0.0189
2648.75,0.0188
2648.50,0.0187
2648.25,0.0187
2648.00,0.0186
2647.75,0.0186
2647.50,0.0185
2647.25,0.0183
2647.00,0.0183
2646.75,0.0183
2646.50,0.0184
2646.25,0.0185
2646.00,0.0186
2645.75,0.0187
2645.50,0.0188
2645.25,0.0188
2645.00,0.0187
2644.75,0.0186
2644.50,0.0185
2644.25,0.0185
2644.00,0.0185
2643.75,0.0185
2643.50,0.0185
2643.25,0.0184
2643.00,0.0184
2642.75,0.0183
2642.50,0.0183
2642.25,0.0183
2642.00,0.0183
2641.75,0.0183
2641.50,0.0183
2641.25,0.0183
2641.00,0.0184
2640.75,0.0184
2640.50,0.0184
2640.25,0.0184
2640.00,0.0184
2639.75,0.0185
2639.50,0.0186
2639.25,0.0186
2639.00,0.0186
2638.75,0.0186
2638.50,0.0185
2638.25,0.0184
2638.00,0.0183
2637.75,0.0184
2637.50,0.0185
2637.25,0.0187
2637.00,0.0187
2636.75,0.0187
2636.50,0.0186
2636.25,0.0185
2636.00,0.0184
2635.75,0.0183
2635.50,0.0182
2635.25,0.0182
2635.00,0.0182
2634.75,0.0182
2634.50,0.0182
2634.25,0.0181
2634.00,0.0181
2633.75,0.0180
2633.50,0.0180
2633.25,0.0181
2633.00,0.0182
2632.75,0.0183
2632.50,0.0183
2632.25,0.0183
2632.00,0.0181
2631.75,0.0179
2631.50,0.0178
2631.25,0.0177
2631.00,0.0176
2630.75,0.0177
2630.50,0.0178
2630.25,0.0179
2630.00,0.0179
2629.75,0.0180
2629.50,0.0181
2629.25,0.0181
2629.00,0.0181
2628.75,0.0181
2628.50,0.0181
2628.25,0.0180
2628.00,0.0180
2627.75,0.0179
2627.50,0.0178
2627.25,0.0176
2627.00,0.0176
2626.75,0.0177
2626.50,0.0178
2626.25,0.0180
2626.00,0.0179
2625.75,0.0178
2625.50,0.0176
2625.25,0.0175
2625.00,0.0175
2624.75,0.0176
2624.50,0.0177
2624.25,0.0177
2624.00,0.0177
2623.75,0.0177
2623.50,0.0177
2623.25,0.0177
2623.00,0.0177
2622.75,0.0176
2622.50,0.0176
2622.25,0.0176
2622.00,0.0176
2621.75,0.0177
2621.50,0.0179
2621.25,0.0181
2621.00,0.0182
2620.75,0.0183
2620.50,0.0183
2620.25,0.0183
2620.00,0.0183
2619.75,0.0182
2619.50,0.0181
2619.25,0.0179
2619.00,0.0178
2618.75,0.0178
2618.50,0.0179
2618.25,0.0179
2618.00,0.0180
2617.75,0.0180
2617.50,0.0180
2617.25,0.0179
2617.00,0.0178
2616.75,0.0177
2616.50,0.0178
2616.25,0.0178
2616.00,0.0179
2615.75,0.0180
2615.50,0.0180
2615.25,0.0181
2615.00,0.0180
2614.75,0.0179
2614.50,0.0177
2614.25,0.0177
2614.00,0.0176
2613.75,0.0176
2613.50,0.0175
2613.25,0.0174
2613.00,0.0173
2612.75,0.0174
2612.50,0.0175
2612.25,0.0176
2612.00,0.0178
2611.75,0.0179
2611.50,0.0179
2611.25,0.0180
2611.00,0.0180
2610.75,0.0179
2610.50,0.0178
2610.25,0.0177
2610.00,0.0175
2609.75,0.0174
2609.50,0.0173
2609.25,0.0174
2609.00,0.0175
2608.75,0.0175
2608.50,0.0175
2608.25,0.0174
2608.00,0.0173
2607.75,0.0174
2607.50,0.0175
2607.25,0.0177
2607.00,0.0178
2606.75,0.0178
2606.50,0.0177
2606.25,0.0175
2606.00,0.0175
2605.75,0.0174
2605.50,0.0174
2605.25,0.0175
2605.00,0.0175
2604.75,0.0175
2604.50,0.0174
2604.25,0.0173
2604.00,0.0171
2603.75,0.0170
2603.50,0.0168
2603.25,0.0167
2603.00,0.0165
2602.75,0.0165
2602.50,0.0165
2602.25,0.0167
2602.00,0.0169
2601.75,0.0172
2601.50,0.0175
2601.25,0.0177
2601.00,0.0178
2600.75,0.0178
2600.50,0.0177
2600.25,0.0175
2600.00,0.0173
2599.75,0.0172
2599.50,0.0172
2599.25,0.0173
2599.00,0.0174
2598.75,0.0174
2598.50,0.0175
2598.25,0.0174
2598.00,0.0173
2597.75,0.0171
2597.50,0.0170
2597.25,0.0169
2597.00,0.0170
2596.75,0.0171
2596.50,0.0171
2596.25,0.0171
2596.00,0.0169
2595.75,0.0168
2595.50,0.0169
2595.25,0.0170
2595.00,0.0171
2594.75,0.0173
2594.50,0.0174
2594.25,0.0174
2594.00,0.0173
2593.75,0.0171
2593.50,0.0169
2593.25,0.0168
2593.00,0.0169
2592.75,0.0169
2592.50,0.0170
2592.25,0.0170
2592.00,0.0170
2591.75,0.0170
2591.50,0.0170
2591.25,0.0170
2591.00,0.0170
2590.75,0.0169
2590.50,0.0167
2590.25,0.0165
2590.00,0.0163
2589.75,0.0164
2589.50,0.0166
2589.25,0.0168
2589.00,0.0169
2588.75,0.0168
2588.50,0.0167
2588.25,0.0166
2588.00,0.0167
2587.75,0.0169
2587.50,0.0171
2587.25,0.0172
2587.00,0.0172
2586.75,0.0171
2586.50,0.0171
2586.25,0.0171
2586.00,0.0171
2585.75,0.0171
2585.50,0.0172
2585.25,0.0172
2585.00,0.0174
2584.75,0.0175
2584.50,0.0176
2584.25,0.0176
2584.00,0.0174
2583.75,0.0171
2583.50,0.0168
2583.25,0.0166
2583.00,0.0165
2582.75,0.0164
2582.50,0.0165
2582.25,0.0166
2582.00,0.0168
2581.75,0.0170
2581.50,0.0171
2581.25,0.0171
2581.00,0.0171
2580.75,0.0171
2580.50,0.0170
2580.25,0.0169
2580.00,0.0169
2579.75,0.0170
2579.50,0.0172
2579.25,0.0173
2579.00,0.0173
2578.75,0.0172
2578.50,0.0170
2578.25,0.0168
2578.00,0.0167
2577.75,0.0167
2577.50,0.0167
2577.25,0.0168
2577.00,0.0168
2576.75,0.0168
2576.50,0.0168
2576.25,0.0168
2576.00,0.0168
2575.75,0.0169
2575.50,0.0169
2575.25,0.0169
2575.00,0.0169
2574.75,0.0169
2574.50,0.0169
2574.25,0.0168
2574.00,0.0166
2573.75,0.0164
2573.50,0.0163
2573.25,0.0163
2573.00,0.0165
2572.75,0.0167
2572.50,0.0167
2572.25,0.0166
2572.00,0.0164
2571.75,0.0162
2571.50,0.0160
2571.25,0.0159
2571.00,0.0159
2570.75,0.0161
2570.50,0.0163
2570.25,0.0165
2570.00,0.0167
2569.75,0.0167
2569.50,0.0167
2569.25,0.0167
2569.00,0.0168
2568.75,0.0170
2568.50,0.0172
2568.25,0.0173
2568.00,0.0173
2567.75,0.0171
2567.50,0.0168
2567.25,0.0166
2567.00,0.0166
2566.75,0.0166
2566.50,0.0166
2566.25,0.0167
2566.00,0.0169
2565.75,0.0170
2565.50,0.0171
2565.25,0.0171
2565.00,0.0171
2564.75,0.0169
2564.50,0.0168
2564.25,0.0166
2564.00,0.0165
2563.75,0.0165
2563.50,0.0164
2563.25,0.0164
2563.00,0.0164
2562.75,0.0165
2562.50,0.0165
2562.25,0.0165
2562.00,0.0165
2561.75,0.0166
2561.50,0.0167
2561.25,0.0168
2561.00,0.0169
2560.75,0.0169
2560.50,0.0168
2560.25,0.0167
2560.00,0.0164
2559.75,0.0162
2559.50,0.0161
2559.25,0.0161
2559.00,0.0161
2558.75,0.0162
2558.50,0.0165
2558.25,0.0169
2558.00,0.0173
2557.75,0.0175
2557.50,0.0176
2557.25,0.0175
2557.00,0.0174
2556.75,0.0173
2556.50,0.0172
2556.25,0.0171
2556.00,0.0168
2555.75,0.0165
2555.50,0.0161
2555.25,0.0158
2555.00,0.0157
2554.75,0.0157
2554.50,0.0157
2554.25,0.0158
2554.00,0.0159
2553.75,0.0161
2553.50,0.0162
2553.25,0.0163
2553.00,0.0164
2552.75,0.0164
2552.50,0.0163
2552.25,0.0162
2552.00,0.0161
2551.75,0.0161
2551.50,0.0161
2551.25,0.0161
2551.00,0.0163
2550.75,0.0165
2550.50,0.0166
2550.25,0.0166
2550.00,0.0164
2549.75,0.0161
2549.50,0.0160
2549.25,0.0160
2549.00,0.0161
2548.75,0.0162
2548.50,0.0163
2548.25,0.0164
2548.00,0.0164
2547.75,0.0163
2547.50,0.0161
2547.25,0.0159
2547.00,0.0157
2546.75,0.0157
2546.50,0.0158
2546.25,0.0160
2546.00,0.0162
2545.75,0.0163
2545.50,0.0164
2545.25,0.0164
2545.00,0.0165
2544.75,0.0166
2544.50,0.0166
2544.25,0.0166
2544.00,0.0165
2543.75,0.0164
2543.50,0.0164
2543.25,0.0166
2543.00,0.0168
2542.75,0.0169
2542.50,0.0168
2542.25,0.0166
2542.00,0.0163
2541.75,0.0160
2541.50,0.0159
2541.25,0.0159
2541.00,0.0161
2540.75,0.0163
2540.50,0.0165
2540.25,0.0166
2540.00,0.0167
2539.75,0.0166
2539.50,0.0165
2539.25,0.0163
2539.00,0.0162
2538.75,0.0162
2538.50,0.0162
2538.25,0.0163
2538.00,0.0163
2537.75,0.0162
2537.50,0.0160
2537.25,0.0158
2537.00,0.0157
2536.75,0.0156
2536.50,0.0156
2536.25,0.0155
2536.00,0.0154
2535.75,0.0153
2535.50,0.0152
2535.25,0.0153
2535.00,0.0155
2534.75,0.0157
2534.50,0.0160
2534.25,0.0162
2534.00,0.0163
2533.75,0.0164
2533.50,0.0164
2533.25,0.0163
2533.00,0.0162
2532.75,0.0161
2532.50,0.0159
2532.25,0.0158
2532.00,0.0158
2531.75,0.0157
2531.50,0.0156
2531.25,0.0155
2531.00,0.0155
2530.75,0.0155
2530.50,0.0156
2530.25,0.0156
2530.00,0.0156
2529.75,0.0155
2529.50,0.0155
2529.25,0.0155
2529.00,0.0157
2528.75,0.0158
2528.50,0.0159
2528.25,0.0158
2528.00,0.0158
2527.75,0.0158
2527.50,0.0158
2527.25,0.0158
2527.00,0.0157
2526.75,0.0155
2526.50,0.0153
2526.25,0.0152
2526.00,0.0152
2525.75,0.0152
2525.50,0.0152
2525.25,0.0153
2525.00,0.0153
2524.75,0.0153
2524.50,0.0153
2524.25,0.0153
2524.00,0.0153
2523.75,0.0154
2523.50,0.0154
2523.25,0.0155
2523.00,0.0156
2522.75,0.0156
2522.50,0.0157
2522.25,0.0157
2522.00,0.0156
2521.75,0.0154
2521.50,0.0153
2521.25,0.0153
2521.00,0.0152
2520.75,0.0151
2520.50,0.0151
2520.25,0.0151
2520.00,0.0152
2519.75,0.0154
2519.50,0.0156
2519.25,0.0156
2519.00,0.0155
2518.75,0.0152
2518.50,0.0150
2518.25,0.0148
2518.00,0.0148
2517.75,0.0149
2517.50,0.0151
2517.25,0.0153
2517.00,0.0152
2516.75,0.0149
2516.50,0.0145
2516.25,0.0142
2516.00,0.0142
2515.75,0.0144
2515.50,0.0147
2515.25,0.0150
2515.00,0.0153
2514.75,0.0155
2514.50,0.0156
2514.25,0.0155
2514.00,0.0152
2513.75,0.0150
2513.50,0.0147
2513.25,0.0145
2513.00,0.0145
2512.75,0.0147
2512.50,0.0150
2512.25,0.0153
2512.00,0.0155
2511.75,0.0156
2511.50,0.0156
2511.25,0.0156
2511.00,0.0156
2510.75,0.0157
2510.50,0.0158
2510.25,0.0157
2510.00,0.0155
2509.75,0.0151
2509.50,0.0147
2509.25,0.0144
2509.00,0.0144
2508.75,0.0146
2508.50,0.0149
2508.25,0.0152
2508.00,0.0154
2507.75,0.0154
2507.50,0.0151
2507.25,0.0148
2507.00,0.0147
2506.75,0.0147
2506.50,0.0150
2506.25,0.0152
2506.00,0.0152
2505.75,0.0152
2505.50,0.0151
2505.25,0.0151
2505.00,0.0150
2504.75,0.0149
2504.50,0.0150
2504.25,0.0151
2504.00,0.0154
2503.75,0.0156
2503.50,0.0158
2503.25,0.0159
2503.00,0.0159
2502.75,0.0158
2502.50,0.0157
2502.25,0.0156
2502.00,0.0156
2501.75,0.0157
2501.50,0.0157
2501.25,0.0158
2501.00,0.0159
2500.75,0.0160
2500.50,0.0160
2500.25,0.0160
2500.00,0.0161
2499.75,0.0162
2499.50,0.0163
2499.25,0.0163
2499.00,0.0162
2498.75,0.0161
2498.50,0.0161
2498.25,0.0160
2498.00,0.0160
2497.75,0.0159
2497.50,0.0157
2497.25,0.0156
2497.00,0.0156
2496.75,0.0156
2496.50,0.0156
2496.25,0.0155
2496.00,0.0153
2495.75,0.0152
2495.50,0.0153
2495.25,0.0156
2495.00,0.0159
2494.75,0.0160
2494.50,0.0160
2494.25,0.0159
2494.00,0.0159
2493.75,0.0159
2493.50,0.0158
2493.25,0.0157
2493.00,0.0157
2492.75,0.0158
2492.50,0.0159
2492.25,0.0160
2492.00,0.0160
2491.75,0.0158
2491.50,0.0157
2491.25,0.0156
2491.00,0.0156
2490.75,0.0158
2490.50,0.0159
2490.25,0.0160
2490.00,0.0159
2489.75,0.0157
2489.50,0.0156
2489.25,0.0156
2489.00,0.0157
2488.75,0.0159
2488.50,0.0160
2488.25,0.0160
2488.00,0.0158
2487.75,0.0157
2487.50,0.0156
2487.25,0.0156
2487.00,0.0157
2486.75,0.0156
2486.50,0.0154
2486.25,0.0152
2486.00,0.0151
2485.75,0.0153
2485.50,0.0157
2485.25,0.0163
2485.00,0.0167
2484.75,0.0168
2484.50,0.0167
2484.25,0.0164
2484.00,0.0161
2483.75,0.0159
2483.50,0.0158
2483.25,0.0159
2483.00,0.0160
2482.75,0.0161
2482.50,0.0163
2482.25,0.0164
2482.00,0.0165
2481.75,0.0164
2481.50,0.0162
2481.25,0.0160
2481.00,0.0159
2480.75,0.0160
2480.50,0.0160
2480.25,0.0161
2480.00,0.0161
2479.75,0.0161
2479.50,0.0160
2479.25,0.0160
2479.00,0.0158
2478.75,0.0157
2478.50,0.0156
2478.25,0.0156
2478.00,0.0157
2477.75,0.0158
2477.50,0.0161
2477.25,0.0163
2477.00,0.0164
2476.75,0.0165
2476.50,0.0164
2476.25,0.0163
2476.00,0.0162
2475.75,0.0161
2475.50,0.0160
2475.25,0.0160
2475.00,0.0160
2474.75,0.0160
2474.50,0.0162
2474.25,0.0163
2474.00,0.0164
2473.75,0.0165
2473.50,0.0165
2473.25,0.0165
2473.00,0.0165
2472.75,0.0164
2472.50,0.0164
2472.25,0.0163
2472.00,0.0164
2471.75,0.0164
2471.50,0.0164
2471.25,0.0163
2471.00,0.0161
2470.75,0.0159
2470.50,0.0158
2470.25,0.0157
2470.00,0.0157
2469.75,0.0158
2469.50,0.0158
2469.25,0.0158
2469.00,0.0157
2468.75,0.0157
2468.50,0.0159
2468.25,0.0161
2468.00,0.0162
2467.75,0.0162
2467.50,0.0160
2467.25,0.0158
2467.00,0.0157
2466.75,0.0158
2466.50,0.0159
2466.25,0.0161
2466.00,0.0162
2465.75,0.0163
2465.50,0.0164
2465.25,0.0164
2465.00,0.0165
2464.75,0.0166
2464.50,0.0166
2464.25,0.0166
2464.00,0.0167
2463.75,0.0167
2463.50,0.0166
2463.25,0.0165
2463.00,0.0163
2462.75,0.0161
2462.50,0.0160
2462.25,0.0160
2462.00,0.0160
2461.75,0.0161
2461.50,0.0163
2461.25,0.0165
2461.00,0.0166
2460.75,0.0168
2460.50,0.0168
2460.25,0.0168
2460.00,0.0167
2459.75,0.0166
2459.50,0.0164
2459.25,0.0162
2459.00,0.0161
2458.75,0.0160
2458.50,0.0159
2458.25,0.0159
2458.00,0.0159
2457.75,0.0159
2457.50,0.0159
2457.25,0.0160
2457.00,0.0162
2456.75,0.0163
2456.50,0.0162
2456.25,0.0160
2456.00,0.0158
2455.75,0.0158
2455.50,0.0158
2455.25,0.0159
2455.00,0.0159
2454.75,0.0157
2454.50,0.0156
2454.25,0.0155
2454.00,0.0154
2453.75,0.0155
2453.50,0.0157
2453.25,0.0158
2453.00,0.0160
2452.75,0.0162
2452.50,0.0162
2452.25,0.0162
2452.00,0.0161
2451.75,0.0160
2451.50,0.0161
2451.25,0.0163
2451.00,0.0164
2450.75,0.0166
2450.50,0.0166
2450.25,0.0165
2450.00,0.0163
2449.75,0.0160
2449.50,0.0158
2449.25,0.0158
2449.00,0.0159
2448.75,0.0160
2448.50,0.0160
2448.25,0.0159
2448.00,0.0158
2447.75,0.0158
2447.50,0.0158
2447.25,0.0159
2447.00,0.0161
2446.75,0.0162
2446.50,0.0163
2446.25,0.0163
2446.00,0.0163
2445.75,0.0163
2445.50,0.0163
2445.25,0.0164
2445.00,0.0164
2444.75,0.0165
2444.50,0.0165
2444.25,0.0165
2444.00,0.0164
2443.75,0.0163
2443.50,0.0162
2443.25,0.0161
2443.00,0.0161
2442.75,0.0161
2442.50,0.0162
2442.25,0.0162
2442.00,0.0161
2441.75,0.0160
2441.50,0.0160
2441.25,0.0160
2441.00,0.0162
2440.75,0.0162
2440.50,0.0162
2440.25,0.0161
2440.00,0.0160
2439.75,0.0159
2439.50,0.0158
2439.25,0.0157
2439.00,0.0157
2438.75,0.0156
2438.50,0.0157
2438.25,0.0158
2438.00,0.0161
2437.75,0.0164
2437.50,0.0167
2437.25,0.0169
2437.00,0.0168
2436.75,0.0166
2436.50,0.0163
2436.25,0.0160
2436.00,0.0158
2435.75,0.0157
2435.50,0.0157
2435.25,0.0157
2435.00,0.0157
2434.75,0.0158
2434.50,0.0159
2434.25,0.0161
2434.00,0.0163
2433.75,0.0164
2433.50,0.0164
2433.25,0.0165
2433.00,0.0165
2432.75,0.0165
2432.50,0.0164
2432.25,0.0163
2432.00,0.0161
2431.75,0.0160
2431.50,0.0158
2431.25,0.0157
2431.00,0.0157
2430.75,0.0155
2430.50,0.0154
2430.25,0.0154
2430.00,0.0155
2429.75,0.0157
2429.50,0.0160
2429.25,0.0162
2429.00,0.0162
2428.75,0.0162
2428.50,0.0162
2428.25,0.0162
2428.00,0.0162
2427.75,0.0162
2427.50,0.0162
2427.25,0.0162
2427.00,0.0161
2426.75,0.0160
2426.50,0.0160
2426.25,0.0159
2426.00,0.0159
2425.75,0.0159
2425.50,0.0159
2425.25,0.0161
2425.00,0.0162
2424.75,0.0163
2424.50,0.0163
2424.25,0.0162
2424.00,0.0161
2423.75,0.0159
2423.50,0.0159
2423.25,0.0160
2423.00,0.0161
2422.75,0.0162
2422.50,0.0163
2422.25,0.0163
2422.00,0.0162
2421.75,0.0161
2421.50,0.0161
2421.25,0.0162
2421.00,0.0163
2420.75,0.0164
2420.50,0.0164
2420.25,0.0163
2420.00,0.0161
2419.75,0.0159
2419.50,0.0158
2419.25,0.0156
2419.00,0.0156
2418.75,0.0157
2418.50,0.0160
2418.25,0.0163
2418.00,0.0164
2417.75,0.0162
2417.50,0.0159
2417.25,0.0157
2417.00,0.0156
2416.75,0.0156
2416.50,0.0158
2416.25,0.0159
2416.00,0.0160
2415.75,0.0159
2415.50,0.0158
2415.25,0.0157
2415.00,0.0156
2414.75,0.0156
2414.50,0.0156
2414.25,0.0157
2414.00,0.0158
2413.75,0.0160
2413.50,0.0163
2413.25,0.0166
2413.00,0.0167
2412.75,0.0167
2412.50,0.0166
2412.25,0.0164
2412.00,0.0163
2411.75,0.0162
2411.50,0.0162
2411.25,0.0163
2411.00,0.0163
2410.75,0.0164
2410.50,0.0166
2410.25,0.0167
2410.00,0.0167
2409.75,0.0166
2409.50,0.0164
2409.25,0.0162
2409.00,0.0160
2408.75,0.0160
2408.50,0.0160
2408.25,0.0160
2408.00,0.0161
2407.75,0.0162
2407.50,0.0163
2407.25,0.0164
2407.00,0.0165
2406.75,0.0165
2406.50,0.0165
2406.25,0.0163
2406.00,0.0162
2405.75,0.0160
2405.50,0.0159
2405.25,0.0158
2405.00,0.0159
2404.75,0.0159
2404.50,0.0160
2404.25,0.0160
2404.00,0.0161
2403.75,0.0162
2403.50,0.0162
2403.25,0.0163
2403.00,0.0163
2402.75,0.0162
2402.50,0.0162
2402.25,0.0162
2402.00,0.0163
2401.75,0.0163
2401.50,0.0163
2401.25,0.0163
2401.00,0.0164
2400.75,0.0165
2400.50,0.0167
2400.25,0.0169
2400.00,0.0169
2399.75,0.0168
2399.50,0.0166
2399.25,0.0163
2399.00,0.0161
2398.75,0.0160
2398.50,0.0162
2398.25,0.0164
2398.00,0.0166
2397.75,0.0167
2397.50,0.0167
2397.25,0.0166
2397.00,0.0166
2396.75,0.0166
2396.50,0.0166
2396.25,0.0166
2396.00,0.0166
2395.75,0.0165
2395.50,0.0165
2395.25,0.0164
2395.00,0.0164
2394.75,0.0164
2394.50,0.0165
2394.25,0.0166
2394.00,0.0167
2393.75,0.0168
2393.50,0.0167
2393.25,0.0165
2393.00,0.0164
2392.75,0.0165
2392.50,0.0166
2392.25,0.0167
2392.00,0.0168
2391.75,0.0168
2391.50,0.0167
2391.25,0.0165
2391.00,0.0164
2390.75,0.0163
2390.50,0.0163
2390.25,0.0163
2390.00,0.0162
2389.75,0.0161
2389.50,0.0160
2389.25,0.0160
2389.00,0.0160
2388.75,0.0162
2388.50,0.0164
2388.25,0.0166
2388.00,0.0169
2387.75,0.0170
2387.50,0.0170
2387.25,0.0168
2387.00,0.0166
2386.75,0.0164
2386.50,0.0164
2386.25,0.0165
2386.00,0.0167
2385.75,0.0167
2385.50,0.0167
2385.25,0.0167
2385.00,0.0167
2384.75,0.0168
2384.50,0.0168
2384.25,0.0168
2384.00,0.0167
2383.75,0.0167
2383.50,0.0168
2383.25,0.0170
2383.00,0.0171
2382.75,0.0171
2382.50,0.0170
2382.25,0.0169
2382.00,0.0170
2381.75,0.0172
2381.50,0.0174
2381.25,0.0176
2381.00,0.0178
2380.75,0.0180
2380.50,0.0181
2380.25,0.0181
2380.00,0.0181
2379.75,0.0180
2379.50,0.0180
2379.25,0.0179
2379.00,0.0177
2378.75,0.0177
2378.50,0.0177
2378.25,0.0179
2378.00,0.0181
2377.75,0.0181
2377.50,0.0180
2377.25,0.0177
2377.00,0.0174
2376.75,0.0172
2376.50,0.0172
2376.25,0.0173
2376.00,0.0175
2375.75,0.0176
2375.50,0.0177
2375.25,0.0177
2375.00,0.0177
2374.75,0.0179
2374.50,0.0180
2374.25,0.0183
2374.00,0.0184
2373.75,0.0185
2373.50,0.0184
2373.25,0.0182
2373.00,0.0180
2372.75,0.0179
2372.50,0.0179
2372.25,0.0180
2372.00,0.0181
2371.75,0.0181
2371.50,0.0181
2371.25,0.0181
2371.00,0.0181
2370.75,0.0180
2370.50,0.0178
2370.25,0.0177
2370.00,0.0177
2369.75,0.0179
2369.50,0.0182
2369.25,0.0185
2369.00,0.0188
2368.75,0.0188
2368.50,0.0186
2368.25,0.0183
2368.00,0.0182
2367.75,0.0182
2367.50,0.0183
2367.25,0.0183
2367.00,0.0181
2366.75,0.0177
2366.50,0.0175
2366.25,0.0176
2366.00,0.0180
2365.75,0.0184
2365.50,0.0185
2365.25,0.0185
2365.00,0.0183
2364.75,0.0182
2364.50,0.0183
2364.25,0.0185
2364.00,0.0187
2363.75,0.0187
2363.50,0.0186
2363.25,0.0184
2363.00,0.0181
2362.75,0.0177
2362.50,0.0175
2362.25,0.0176
2362.00,0.0180
2361.75,0.0187
2361.50,0.0195
2361.25,0.0201
2361.00,0.0203
2360.75,0.0202
2360.50,0.0199
2360.25,0.0195
2360.00,0.0187
2359.75,0.0179
2359.50,0.0174
2359.25,0.0171
2359.00,0.0171
2358.75,0.0175
2358.50,0.0181
2358.25,0.0185
2358.00,0.0185
2357.75,0.0180
2357.50,0.0172
2357.25,0.0165
2357.00,0.0165
2356.75,0.0169
2356.50,0.0173
2356.25,0.0176
2356.00,0.0178
2355.75,0.0181
2355.50,0.0184
2355.25,0.0186
2355.00,0.0187
2354.75,0.0186
2354.50,0.0186
2354.25,0.0186
2354.00,0.0188
2353.75,0.0189
2353.50,0.0191
2353.25,0.0191
2353.00,0.0190
2352.75,0.0188
2352.50,0.0184
2352.25,0.0182
2352.00,0.0182
2351.75,0.0182
2351.50,0.0184
2351.25,0.0187
2351.00,0.0188
2350.75,0.0187
2350.50,0.0187
2350.25,0.0187
2350.00,0.0188
2349.75,0.0188
2349.50,0.0187
2349.25,0.0184
2349.00,0.0182
2348.75,0.0181
2348.50,0.0181
2348.25,0.0183
2348.00,0.0186
2347.75,0.0191
2347.50,0.0196
2347.25,0.0199
2347.00,0.0199
2346.75,0.0195
2346.50,0.0191
2346.25,0.0187
2346.00,0.0184
2345.75,0.0183
2345.50,0.0182
2345.25,0.0182
2345.00,0.0181
2344.75,0.0180
2344.50,0.0179
2344.25,0.0179
2344.00,0.0181
2343.75,0.0182
2343.50,0.0185
2343.25,0.0187
2343.00,0.0188
2342.75,0.0188
2342.50,0.0189
2342.25,0.0191
2342.00,0.0194
2341.75,0.0197
2341.50,0.0198
2341.25,0.0198
2341.00,0.0196
2340.75,0.0193
2340.50,0.0189
2340.25,0.0186
2340.00,0.0184
2339.75,0.0181
2339.50,0.0181
2339.25,0.0183
2339.00,0.0184
2338.75,0.0183
2338.50,0.0181
2338.25,0.0178
2338.00,0.0174
2337.75,0.0168
2337.50,0.0164
2337.25,0.0164
2337.00,0.0167
2336.75,0.0172
2336.50,0.0174
2336.25,0.0173
2336.00,0.0169
2335.75,0.0167
2335.50,0.0170
2335.25,0.0178
2335.00,0.0187
2334.75,0.0192
2334.50,0.0193
2334.25,0.0190
2334.00,0.0185
2333.75,0.0184
2333.50,0.0186
2333.25,0.0191
2333.00,0.0193
2332.75,0.0192
2332.50,0.0187
2332.25,0.0181
2332.00,0.0176
2331.75,0.0175
2331.50,0.0178
2331.25,0.0181
2331.00,0.0184
2330.75,0.0186
2330.50,0.0189
2330.25,0.0189
2330.00,0.0186
2329.75,0.0184
2329.50,0.0183
2329.25,0.0182
2329.00,0.0181
2328.75,0.0181
2328.50,0.0183
2328.25,0.0183
2328.00,0.0184
2327.75,0.0184
2327.50,0.0183
2327.25,0.0180
2327.00,0.0177
2326.75,0.0177
2326.50,0.0180
2326.25,0.0184
2326.00,0.0188
2325.75,0.0189
2325.50,0.0187
2325.25,0.0182
2325.00,0.0176
2324.75,0.0171
2324.50,0.0169
2324.25,0.0170
2324.00,0.0174
2323.75,0.0177
2323.50,0.0180
2323.25,0.0185
2323.00,0.0190
2322.75,0.0192
2322.50,0.0191
2322.25,0.0187
2322.00,0.0185
2321.75,0.0182
2321.50,0.0179
2321.25,0.0179
2321.00,0.0180
2320.75,0.0182
2320.50,0.0181
2320.25,0.0179
2320.00,0.0179
2319.75,0.0178
2319.50,0.0178
2319.25,0.0177
2319.00,0.0176
2318.75,0.0172
2318.50,0.0167
2318.25,0.0165
2318.00,0.0164
2317.75,0.0163
2317.50,0.0164
2317.25,0.0167
2317.00,0.0171
2316.75,0.0174
2316.50,0.0175
2316.25,0.0175
2316.00,0.0174
2315.75,0.0173
2315.50,0.0171
2315.25,0.0170
2315.00,0.0169
2314.75,0.0169
2314.50,0.0170
2314.25,0.0173
2314.00,0.0175
2313.75,0.0176
2313.50,0.0176
2313.25,0.0173
2313.00,0.0170
2312.75,0.0167
2312.50,0.0167
2312.25,0.0169
2312.00,0.0171
2311.75,0.0172
2311.50,0.0174
2311.25,0.0174
2311.00,0.0174
2310.75,0.0173
2310.50,0.0170
2310.25,0.0168
2310.00,0.0166
2309.75,0.0165
2309.50,0.0166
2309.25,0.0166
2309.00,0.0166
2308.75,0.0166
2308.50,0.0165
2308.25,0.0165
2308.00,0.0166
2307.75,0.0168
2307.50,0.0171
2307.25,0.0174
2307.00,0.0174
2306.75,0.0172
2306.50,0.0167
2306.25,0.0162
2306.00,0.0158
2305.75,0.0157
2305.50,0.0159
2305.25,0.0162
2305.00,0.0165
2304.75,0.0167
2304.50,0.0167
2304.25,0.0166
2304.00,0.0165
2303.75,0.0165
2303.50,0.0165
2303.25,0.0166
2303.00,0.0166
2302.75,0.0167
2302.50,0.0169
2302.25,0.0169
2302.00,0.0169
2301.75,0.0168
2301.50,0.0166
2301.25,0.0165
2301.00,0.0165
2300.75,0.0166
2300.50,0.0167
2300.25,0.0168
2300.00,0.0167
2299.75,0.0165
2299.50,0.0161
2299.25,0.0157
2299.00,0.0155
2298.75,0.0154
2298.50,0.0156
2298.25,0.0159
2298.00,0.0161
2297.75,0.0160
2297.50,0.0158
2297.25,0.0157
2297.00,0.0156
2296.75,0.0157
2296.50,0.0158
2296.25,0.0158
2296.00,0.0158
2295.75,0.0157
2295.50,0.0157
2295.25,0.0156
2295.00,0.0156
2294.75,0.0154
2294.50,0.0153
2294.25,0.0151
2294.00,0.0149
2293.75,0.0150
2293.50,0.0151
2293.25,0.0154
2293.00,0.0156
2292.75,0.0156
2292.50,0.0155
2292.25,0.0153
2292.00,0.0153
2291.75,0.0153
2291.50,0.0154
2291.25,0.0153
2291.00,0.0151
2290.75,0.0149
2290.50,0.0146
2290.25,0.0143
2290.00,0.0141
2289.75,0.0140
2289.50,0.0140
2289.25,0.0142
2289.00,0.0145
2288.75,0.0148
2288.50,0.0149
2288.25,0.0149
2288.00,0.0148
2287.75,0.0149
2287.50,0.0152
2287.25,0.0154
2287.00,0.0156
2286.75,0.0155
2286.50,0.0152
2286.25,0.0150
2286.00,0.0150
2285.75,0.0152
2285.50,0.0153
2285.25,0.0153
2285.00,0.0151
2284.75,0.0147
2284.50,0.0143
2284.25,0.0140
2284.00,0.0138
2283.75,0.0138
2283.50,0.0138
2283.25,0.0140
2283.00,0.0141
2282.75,0.0143
2282.50,0.0143
2282.25,0.0141
2282.00,0.0139
2281.75,0.0138
2281.50,0.0140
2281.25,0.0144
2281.00,0.0147
2280.75,0.0150
2280.50,0.0150
2280.25,0.0150
2280.00,0.0150
2279.75,0.0149
2279.50,0.0146
2279.25,0.0143
2279.00,0.0140
2278.75,0.0139
2278.50,0.0139
2278.25,0.0140
2278.00,0.0139
2277.75,0.0137
2277.50,0.0135
2277.25,0.0132
2277.00,0.0132
2276.75,0.0133
2276.50,0.0134
2276.25,0.0136
2276.00,0.0137
2275.75,0.0139
2275.50,0.0140
2275.25,0.0141
2275.00,0.0139
2274.75,0.0136
2274.50,0.0134
2274.25,0.0132
2274.00,0.0131
2273.75,0.0130
2273.50,0.0127
2273.25,0.0124
2273.00,0.0122
2272.75,0.0122
2272.50,0.0123
2272.25,0.0126
2272.00,0.0129
2271.75,0.0132
2271.50,0.0134
2271.25,0.0135
2271.00,0.0136
2270.75,0.0136
2270.50,0.0136
2270.25,0.0136
2270.00,0.0135
2269.75,0.0133
2269.50,0.0130
2269.25,0.0127
2269.00,0.0124
2268.75,0.0125
2268.50,0.0127
2268.25,0.0129
2268.00,0.0131
2267.75,0.0132
2267.50,0.0132
2267.25,0.0132
2267.00,0.0130
2266.75,0.0129
2266.50,0.0128
2266.25,0.0127
2266.00,0.0126
2265.75,0.0125
2265.50,0.0122
2265.25,0.0120
2265.00,0.0118
2264.75,0.0118
2264.50,0.0118
2264.25,0.0118
2264.00,0.0118
2263.75,0.0119
2263.50,0.0119
2263.25,0.0122
2263.00,0.0124
2262.75,0.0127
2262.50,0.0129
2262.25,0.0129
2262.00,0.0129
2261.75,0.0128
2261.50,0.0126
2261.25,0.0123
2261.00,0.0120
2260.75,0.0119
2260.50,0.0119
2260.25,0.0120
2260.00,0.0120
2259.75,0.0121
2259.50,0.0121
2259.25,0.0121
2259.00,0.0122
2258.75,0.0121
2258.50,0.0122
2258.25,0.0123
2258.00,0.0125
2257.75,0.0127
2257.50,0.0130
2257.25,0.0131
2257.00,0.0130
2256.75,0.0128
2256.50,0.0125
2256.25,0.0122
2256.00,0.0120
2255.75,0.0119
2255.50,0.0119
2255.25,0.0119
2255.00,0.0119
2254.75,0.0118
2254.50,0.0117
2254.25,0.0116
2254.00,0.0115
2253.75,0.0115
2253.50,0.0116
2253.25,0.0118
2253.00,0.0121
2252.75,0.0124
2252.50,0.0125
2252.25,0.0123
2252.00,0.0118
2251.75,0.0114
2251.50,0.0110
2251.25,0.0110
2251.00,0.0112
2250.75,0.0115
2250.50,0.0117
2250.25,0.0118
2250.00,0.0117
2249.75,0.0115
2249.50,0.0113
2249.25,0.0112
2249.00,0.0113
2248.75,0.0114
2248.50,0.0115
2248.25,0.0114
2248.00,0.0113
2247.75,0.0112
2247.50,0.0113
2247.25,0.0116
2247.00,0.0121
2246.75,0.0124
2246.50,0.0124
2246.25,0.0121
2246.00,0.0116
2245.75,0.0112
2245.50,0.0108
2245.25,0.0105
2245.00,0.0104
2244.75,0.0104
2244.50,0.0106
2244.25,0.0108
2244.00,0.0111
2243.75,0.0112
2243.50,0.0113
2243.25,0.0115
2243.00,0.0117
2242.75,0.0119
2242.50,0.0120
2242.25,0.0120
2242.00,0.0119
2241.75,0.0118
2241.50,0.0117
2241.25,0.0116
2241.00,0.0115
2240.75,0.0112
2240.50,0.0108
2240.25,0.0106
2240.00,0.0105
2239.75,0.0105
2239.50,0.0106
2239.25,0.0108
2239.00,0.0109
2238.75,0.0110
2238.50,0.0110
2238.25,0.0109
2238.00,0.0109
2237.75,0.0109
2237.50,0.0108
2237.25,0.0108
2237.00,0.0108
2236.75,0.0110
2236.50,0.0112
2236.25,0.0114
2236.00,0.0114
2235.75,0.0115
2235.50,0.0115
2235.25,0.0115
2235.00,0.0114
2234.75,0.0111
2234.50,0.0106
2234.25,0.0103
2234.00,0.0101
2233.75,0.0102
2233.50,0.0105
2233.25,0.0108
2233.00,0.0109
2232.75,0.0109
2232.50,0.0107
2232.25,0.0104
2232.00,0.0102
2231.75,0.0101
2231.50,0.0102
2231.25,0.0105
2231.00,0.0107
2230.75,0.0107
2230.50,0.0104
2230.25,0.0099
2230.00,0.0094
2229.75,0.0092
2229.50,0.0093
2229.25,0.0096
2229.00,0.0099
2228.75,0.0100
2228.50,0.0099
2228.25,0.0099
2228.00,0.0100
2227.75,0.0104
2227.50,0.0108
2227.25,0.0110
2227.00,0.0110
2226.75,0.0109
2226.50,0.0107
2226.25,0.0105
2226.00,0.0101
2225.75,0.0097
2225.50,0.0093
2225.25,0.0090
2225.00,0.0090
2224.75,0.0091
2224.50,0.0094
2224.25,0.0097
2224.00,0.0099
2223.75,0.0101
2223.50,0.0102
2223.25,0.0102
2223.00,0.0102
2222.75,0.0100
2222.50,0.0095
2222.25,0.0090
2222.00,0.0084
2221.75,0.0080
2221.50,0.0078
2221.25,0.0078
2221.00,0.0080
2220.75,0.0083
2220.50,0.0087
2220.25,0.0093
2220.00,0.0100
2219.75,0.0105
2219.50,0.0107
2219.25,0.0104
2219.00,0.0099
2218.75,0.0097
2218.50,0.0098
2218.25,0.0100
2218.00,0.0100
2217.75,0.0097
2217.50,0.0093
2217.25,0.0088
2217.00,0.0084
2216.75,0.0081
2216.50,0.0081
2216.25,0.0085
2216.00,0.0090
2215.75,0.0094
2215.50,0.0094
2215.25,0.0092
2215.00,0.0089
2214.75,0.0088
2214.50,0.0087
2214.25,0.0084
2214.00,0.0080
2213.75,0.0076
2213.50,0.0073
2213.25,0.0072
2213.00,0.0074
2212.75,0.0077
2212.50,0.0080
2212.25,0.0083
2212.00,0.0086
2211.75,0.0089
2211.50,0.0092
2211.25,0.0095
2211.00,0.0098
2210.75,0.0101
2210.50,0.0102
2210.25,0.0101
2210.00,0.0097
2209.75,0.0088
2209.50,0.0078
2209.25,0.0070
2209.00,0.0067
2208.75,0.0069
2208.50,0.0070
2208.25,0.0069
2208.00,0.0066
2207.75,0.0064
2207.50,0.0067
2207.25,0.0073
2207.00,0.0081
2206.75,0.0087
2206.50,0.0090
2206.25,0.0089
2206.00,0.0087
2205.75,0.0085
2205.50,0.0084
2205.25,0.0082
2205.00,0.0080
2204.75,0.0077
2204.50,0.0075
2204.25,0.0076
2204.00,0.0079
2203.75,0.0084
2203.50,0.0088
2203.25,0.0090
2203.00,0.0091
2202.75,0.0090
2202.50,0.0088
2202.25,0.0085
2202.00,0.0084
2201.75,0.0084
2201.50,0.0084
2201.25,0.0082
2201.00,0.0078
2200.75,0.0075
2200.50,0.0074
2200.25,0.0075
2200.00,0.0078
2199.75,0.0079
2199.50,0.0079
2199.25,0.0077
2199.00,0.0074
2198.75,0.0073
2198.50,0.0072
2198.25,0.0071
2198.00,0.0071
2197.75,0.0071
2197.50,0.0074
2197.25,0.0077
2197.00,0.0081
2196.75,0.0083
2196.50,0.0082
2196.25,0.0080
2196.00,0.0076
2195.75,0.0072
2195.50,0.0070
2195.25,0.0071
2195.00,0.0073
2194.75,0.0074
2194.50,0.0073
2194.25,0.0069
2194.00,0.0066
2193.75,0.0066
2193.50,0.0068
2193.25,0.0071
2193.00,0.0074
2192.75,0.0074
2192.50,0.0072
2192.25,0.0068
2192.00,0.0065
2191.75,0.0062
2191.50,0.0062
2191.25,0.0063
2191.00,0.0064
2190.75,0.0065
2190.50,0.0066
2190.25,0.0068
2190.00,0.0070
2189.75,0.0072
2189.50,0.0073
2189.25,0.0071
2189.00,0.0067
2188.75,0.0061
2188.50,0.0057
2188.25,0.0055
2188.00,0.0057
2187.75,0.0063
2187.50,0.0070
2187.25,0.0077
2187.00,0.0080
2186.75,0.0080
2186.50,0.0077
2186.25,0.0072
2186.00,0.0066
2185.75,0.0060
2185.50,0.0056
2185.25,0.0055
2185.00,0.0056
2184.75,0.0058
2184.50,0.0059
2184.25,0.0058
2184.00,0.0055
2183.75,0.0051
2183.50,0.0047
2183.25,0.0045
2183.00,0.0045
2182.75,0.0049
2182.50,0.0053
2182.25,0.0057
2182.00,0.0059
2181.75,0.0060
2181.50,0.0061
2181.25,0.0063
2181.00,0.0066
2180.75,0.0068
2180.50,0.0068
2180.25,0.0064
2180.00,0.0056
2179.75,0.0046
2179.50,0.0041
2179.25,0.0041
2179.00,0.0048
2178.75,0.0057
2178.50,0.0065
2178.25,0.0070
2178.00,0.0073
2177.75,0.0074
2177.50,0.0075
2177.25,0.0074
2177.00,0.0072
2176.75,0.0069
2176.50,0.0067
2176.25,0.0067
2176.00,0.0068
2175.75,0.0069
2175.50,0.0068
2175.25,0.0065
2175.00,0.0062
2174.75,0.0059
2174.50,0.0058
2174.25,0.0058
2174.00,0.0058
2173.75,0.0057
2173.50,0.0053
2173.25,0.0048
2173.00,0.0044
2172.75,0.0043
2172.50,0.0047
2172.25,0.0056
2172.00,0.0067
2171.75,0.0074
2171.50,0.0075
2171.25,0.0070
2171.00,0.0061
2170.75,0.0053
2170.50,0.0049
2170.25,0.0048
2170.00,0.0049
2169.75,0.0052
2169.50,0.0053
2169.25,0.0052
2169.00,0.0049
2168.75,0.0046
2168.50,0.0044
2168.25,0.0044
2168.00,0.0047
2167.75,0.0050
2167.50,0.0053
2167.25,0.0053
2167.00,0.0051
2166.75,0.0048
2166.50,0.0044
2166.25,0.0039
2166.00,0.0034
2165.75,0.0029
2165.50,0.0025
2165.25,0.0023
2165.00,0.0025
2164.75,0.0029
2164.50,0.0033
2164.25,0.0036
2164.00,0.0039
2163.75,0.0042
2163.50,0.0045
2163.25,0.0045
2163.00,0.0042
2162.75,0.0036
2162.50,0.0028
2162.25,0.0021
2162.00,0.0017
2161.75,0.0016
2161.50,0.0018
2161.25,0.0022
2161.00,0.0029
2160.75,0.0035
2160.50,0.0039
2160.25,0.0038
2160.00,0.0032
2159.75,0.0025
2159.50,0.0019
2159.25,0.0019
2159.00,0.0023
2158.75,0.0027
2158.50,0.0030
2158.25,0.0030
2158.00,0.0030
2157.75,0.0030
2157.50,0.0030
2157.25,0.0029
2157.00,0.0030
2156.75,0.0031
2156.50,0.0033
2156.25,0.0036
2156.00,0.0041
2155.75,0.0047
2155.50,0.0051
2155.25,0.0051
2155.00,0.0048
2154.75,0.0043
2154.50,0.0038
2154.25,0.0036
2154.00,0.0036
2153.75,0.0038
2153.50,0.0041
2153.25,0.0044
2153.00,0.0045
2152.75,0.0045
2152.50,0.0043
2152.25,0.0040
2152.00,0.0038
2151.75,0.0039
2151.50,0.0043
2151.25,0.0049
2151.00,0.0053
2150.75,0.0055
2150.50,0.0053
2150.25,0.0051
2150.00,0.0050
2149.75,0.0052
2149.50,0.0059
2149.25,0.0066
2149.00,0.0070
2148.75,0.0070
2148.50,0.0067
2148.25,0.0062
2148.00,0.0060
2147.75,0.0060
2147.50,0.0062
2147.25,0.0063
2147.00,0.0063
2146.75,0.0064
2146.50,0.0065
2146.25,0.0066
2146.00,0.0068
2145.75,0.0069
2145.50,0.0069
2145.25,0.0067
2145.00,0.0064
2144.75,0.0061
2144.50,0.0059
2144.25,0.0060
2144.00,0.0061
2143.75,0.0062
2143.50,0.0061
2143.25,0.0060
2143.00,0.0061
2142.75,0.0064
2142.50,0.0068
2142.25,0.0073
2142.00,0.0075
2141.75,0.0075
2141.50,0.0071
2141.25,0.0068
2141.00,0.0066
2140.75,0.0068
2140.50,0.0072
2140.25,0.0076
2140.00,0.0076
2139.75,0.0072
2139.50,0.0068
2139.25,0.0066
2139.00,0.0069
2138.75,0.0075
2138.50,0.0082
2138.25,0.0087
2138.00,0.0089
2137.75,0.0088
2137.50,0.0086
2137.25,0.0083
2137.00,0.0080
2136.75,0.0078
2136.50,0.0075
2136.25,0.0073
2136.00,0.0072
2135.75,0.0075
2135.50,0.0080
2135.25,0.0084
2135.00,0.0087
2134.75,0.0086
2134.50,0.0083
2134.25,0.0081
2134.00,0.0082
2133.75,0.0086
2133.50,0.0092
2133.25,0.0095
2133.00,0.0095
2132.75,0.0094
2132.50,0.0094
2132.25,0.0094
2132.00,0.0094
2131.75,0.0094
2131.50,0.0093
2131.25,0.0093
2131.00,0.0094
2130.75,0.0094
2130.50,0.0093
2130.25,0.0093
2130.00,0.0093
2129.75,0.0093
2129.50,0.0093
2129.25,0.0091
2129.00,0.0091
2128.75,0.0092
2128.50,0.0096
2128.25,0.0101
2128.00,0.0105
2127.75,0.0106
2127.50,0.0104
2127.25,0.0101
2127.00,0.0099
2126.75,0.0097
2126.50,0.0096
2126.25,0.0096
2126.00,0.0097
2125.75,0.0098
2125.50,0.0099
2125.25,0.0099
2125.00,0.0099
2124.75,0.0098
2124.50,0.0097
2124.25,0.0097
2124.00,0.0099
2123.75,0.0101
2123.50,0.0103
2123.25,0.0105
2123.00,0.0107
2122.75,0.0107
2122.50,0.0107
2122.25,0.0108
2122.00,0.0108
2121.75,0.0108
2121.50,0.0109
2121.25,0.0110
2121.00,0.0112
2120.75,0.0112
2120.50,0.0111
2120.25,0.0107
2120.00,0.0103
2119.75,0.0099
2119.50,0.0098
2119.25,0.0101
2119.00,0.0105
2118.75,0.0108
2118.50,0.0111
2118.25,0.0111
2118.00,0.0111
2117.75,0.0111
2117.50,0.0112
2117.25,0.0113
2117.00,0.0112
2116.75,0.0109
2116.50,0.0105
2116.25,0.0101
2116.00,0.0100
2115.75,0.0102
2115.50,0.0105
2115.25,0.0108
2115.00,0.0111
2114.75,0.0114
2114.50,0.0116
2114.25,0.0116
2114.00,0.0114
2113.75,0.0110
2113.50,0.0106
2113.25,0.0105
2113.00,0.0107
2112.75,0.0108
2112.50,0.0109
2112.25,0.0108
2112.00,0.0106
2111.75,0.0105
2111.50,0.0106
2111.25,0.0109
2111.00,0.0112
2110.75,0.0113
2110.50,0.0112
2110.25,0.0109
2110.00,0.0106
2109.75,0.0105
2109.50,0.0106
2109.25,0.0108
2109.00,0.0111
2108.75,0.0112
2108.50,0.0113
2108.25,0.0112
2108.00,0.0112
2107.75,0.0113
2107.50,0.0115
2107.25,0.0115
2107.00,0.0114
2106.75,0.0110
2106.50,0.0106
2106.25,0.0104
2106.00,0.0103
2105.75,0.0105
2105.50,0.0107
2105.25,0.0109
2105.00,0.0109
2104.75,0.0109
2104.50,0.0109
2104.25,0.0109
2104.00,0.0110
2103.75,0.0110
2103.50,0.0110
2103.25,0.0108
2103.00,0.0105
2102.75,0.0102
2102.50,0.0101
2102.25,0.0103
2102.00,0.0106
2101.75,0.0109
2101.50,0.0111
2101.25,0.0112
2101.00,0.0111
2100.75,0.0109
2100.50,0.0106
2100.25,0.0103
2100.00,0.0101
2099.75,0.0101
2099.50,0.0102
2099.25,0.0105
2099.00,0.0107
2098.75,0.0108
2098.50,0.0108
2098.25,0.0107
2098.00,0.0107
2097.75,0.0106
2097.50,0.0106
2097.25,0.0105
2097.00,0.0105
2096.75,0.0104
2096.50,0.0104
2096.25,0.0104
2096.00,0.0105
2095.75,0.0106
2095.50,0.0109
2095.25,0.0112
2095.00,0.0115
2094.75,0.0117
2094.50,0.0117
2094.25,0.0116
2094.00,0.0113
2093.75,0.0110
2093.50,0.0106
2093.25,0.0104
2093.00,0.0104
2092.75,0.0106
2092.50,0.0108
2092.25,0.0108
2092.00,0.0105
2091.75,0.0101
2091.50,0.0098
2091.25,0.0098
2091.00,0.0102
2090.75,0.0107
2090.50,0.0111
2090.25,0.0113
2090.00,0.0112
2089.75,0.0112
2089.50,0.0111
2089.25,0.0109
2089.00,0.0107
2088.75,0.0104
2088.50,0.0101
2088.25,0.0099
2088.00,0.0100
2087.75,0.0101
2087.50,0.0103
2087.25,0.0105
2087.00,0.0106
2086.75,0.0109
2086.50,0.0112
2086.25,0.0115
2086.00,0.0116
2085.75,0.0114
2085.50,0.0111
2085.25,0.0107
2085.00,0.0103
2084.75,0.0102
2084.50,0.0101
2084.25,0.0102
2084.00,0.0104
2083.75,0.0106
2083.50,0.0107
2083.25,0.0105
2083.00,0.0101
2082.75,0.0097
2082.50,0.0093
2082.25,0.0093
2082.00,0.0096
2081.75,0.0099
2081.50,0.0103
2081.25,0.0106
2081.00,0.0109
2080.75,0.0112
2080.50,0.0113
2080.25,0.0113
2080.00,0.0110
2079.75,0.0107
2079.50,0.0105
2079.25,0.0104
2079.00,0.0105
2078.75,0.0107
2078.50,0.0108
2078.25,0.0107
2078.00,0.0104
2077.75,0.0100
2077.50,0.0099
2077.25,0.0099
2077.00,0.0100
2076.75,0.0102
2076.50,0.0104
2076.25,0.0104
2076.00,0.0104
2075.75,0.0104
2075.50,0.0103
2075.25,0.0103
2075.00,0.0103
2074.75,0.0102
2074.50,0.0100
2074.25,0.0097
2074.00,0.0094
2073.75,0.0091
2073.50,0.0090
2073.25,0.0090
2073.00,0.0090
2072.75,0.0089
2072.50,0.0087
2072.25,0.0084
2072.00,0.0083
2071.75,0.0082
2071.50,0.0084
2071.25,0.0088
2071.00,0.0095
2070.75,0.0100
2070.50,0.0103
2070.25,0.0103
2070.00,0.0101
2069.75,0.0098
2069.50,0.0094
2069.25,0.0090
2069.00,0.0086
2068.75,0.0082
2068.50,0.0080
2068.25,0.0079
2068.00,0.0081
2067.75,0.0086
2067.50,0.0092
2067.25,0.0096
2067.00,0.0096
2066.75,0.0093
2066.50,0.0090
2066.25,0.0088
2066.00,0.0088
2065.75,0.0087
2065.50,0.0086
2065.25,0.0085
2065.00,0.0084
2064.75,0.0085
2064.50,0.0087
2064.25,0.0089
2064.00,0.0090
2063.75,0.0091
2063.50,0.0094
2063.25,0.0097
2063.00,0.0100
2062.75,0.0102
2062.50,0.0102
2062.25,0.0101
2062.00,0.0099
2061.75,0.0098
2061.50,0.0096
2061.25,0.0095
2061.00,0.0096
2060.75,0.0097
2060.50,0.0100
2060.25,0.0102
2060.00,0.0102
2059.75,0.0100
2059.50,0.0094
2059.25,0.0088
2059.00,0.0083
2058.75,0.0083
2058.50,0.0088
2058.25,0.0093
2058.00,0.0096
2057.75,0.0093
2057.50,0.0086
2057.25,0.0078
2057.00,0.0072
2056.75,0.0071
2056.50,0.0075
2056.25,0.0082
2056.00,0.0086
2055.75,0.0088
2055.50,0.0086
2055.25,0.0084
2055.00,0.0084
2054.75,0.0087
2054.50,0.0091
2054.25,0.0094
2054.00,0.0094
2053.75,0.0090
2053.50,0.0085
2053.25,0.0081
2053.00,0.0081
2052.75,0.0085
2052.50,0.0089
2052.25,0.0090
2052.00,0.0089
2051.75,0.0085
2051.50,0.0082
2051.25,0.0079
2051.00,0.0075
2050.75,0.0071
2050.50,0.0067
2050.25,0.0063
2050.00,0.0061
2049.75,0.0061
2049.50,0.0064
2049.25,0.0067
2049.00,0.0070
2048.75,0.0071
2048.50,0.0071
2048.25,0.0070
2048.00,0.0070
2047.75,0.0072
2047.50,0.0074
2047.25,0.0074
2047.00,0.0072
2046.75,0.0068
2046.50,0.0063
2046.25,0.0061
2046.00,0.0062
2045.75,0.0064
2045.50,0.0066
2045.25,0.0067
2045.00,0.0065
2044.75,0.0063
2044.50,0.0063
2044.25,0.0065
2044.00,0.0068
2043.75,0.0070
2043.50,0.0070
2043.25,0.0068
2043.00,0.0065
2042.75,0.0064
2042.50,0.0063
2042.25,0.0063
2042.00,0.0063
2041.75,0.0062
2041.50,0.0058
2041.25,0.0053
2041.00,0.0049
2040.75,0.0047
2040.50,0.0048
2040.25,0.0051
2040.00,0.0054
2039.75,0.0056
2039.50,0.0058
2039.25,0.0059
2039.00,0.0060
2038.75,0.0059
2038.50,0.0057
2038.25,0.0055
2038.00,0.0054
2037.75,0.0054
2037.50,0.0055
2037.25,0.0057
2037.00,0.0060
2036.75,0.0062
2036.50,0.0064
2036.25,0.0065
2036.00,0.0065
2035.75,0.0064
2035.50,0.0063
2035.25,0.0061
2035.00,0.0057
2034.75,0.0053
2034.50,0.0049
2034.25,0.0046
2034.00,0.0045
2033.75,0.0043
2033.50,0.0041
2033.25,0.0039
2033.00,0.0038
2032.75,0.0041
2032.50,0.0047
2032.25,0.0056
2032.00,0.0064
2031.75,0.0067
2031.50,0.0065
2031.25,0.0060
2031.00,0.0054
2030.75,0.0050
2030.50,0.0048
2030.25,0.0048
2030.00,0.0050
2029.75,0.0053
2029.50,0.0056
2029.25,0.0058
2029.00,0.0058
2028.75,0.0056
2028.50,0.0053
2028.25,0.0050
2028.00,0.0045
2027.75,0.0041
2027.50,0.0036
2027.25,0.0034
2027.00,0.0034
2026.75,0.0035
2026.50,0.0039
2026.25,0.0043
2026.00,0.0046
2025.75,0.0048
2025.50,0.0047
2025.25,0.0046
2025.00,0.0046
2024.75,0.0045
2024.50,0.0045
2024.25,0.0045
2024.00,0.0046
2023.75,0.0047
2023.50,0.0048
2023.25,0.0049
2023.00,0.0051
2022.75,0.0054
2022.50,0.0058
2022.25,0.0061
2022.00,0.0060
2021.75,0.0057
2021.50,0.0051
2021.25,0.0045
2021.00,0.0041
2020.75,0.0037
2020.50,0.0035
2020.25,0.0034
2020.00,0.0035
2019.75,0.0039
2019.50,0.0044
2019.25,0.0049
2019.00,0.0052
2018.75,0.0054
2018.50,0.0055
2018.25,0.0056
2018.00,0.0057
2017.75,0.0058
2017.50,0.0060
2017.25,0.0062
2017.00,0.0063
2016.75,0.0063
2016.50,0.0062
2016.25,0.0062
2016.00,0.0062
2015.75,0.0061
2015.50,0.0059
2015.25,0.0057
2015.00,0.0053
2014.75,0.0051
2014.50,0.0051
2014.25,0.0052
2014.00,0.0055
2013.75,0.0057
2013.50,0.0058
2013.25,0.0057
2013.00,0.0055
2012.75,0.0055
2012.50,0.0056
2012.25,0.0059
2012.00,0.0063
2011.75,0.0067
2011.50,0.0070
2011.25,0.0071
2011.00,0.0071
2010.75,0.0070
2010.50,0.0066
2010.25,0.0061
2010.00,0.0054
2009.75,0.0049
2009.50,0.0046
2009.25,0.0046
2009.00,0.0049
2008.75,0.0054
2008.50,0.0058
2008.25,0.0062
2008.00,0.0063
2007.75,0.0063
2007.50,0.0060
2007.25,0.0058
2007.00,0.0057
2006.75,0.0057
2006.50,0.0058
2006.25,0.0059
2006.00,0.0062
2005.75,0.0064
2005.50,0.0067
2005.25,0.0070
2005.00,0.0072
2004.75,0.0074
2004.50,0.0073
2004.25,0.0072
2004.00,0.0071
2003.75,0.0070
2003.50,0.0070
2003.25,0.0071
2003.00,0.0072
2002.75,0.0074
2002.50,0.0077
2002.25,0.0082
2002.00,0.0086
2001.75,0.0089
2001.50,0.0089
2001.25,0.0087
2001.00,0.0085
2000.75,0.0083
2000.50,0.0081
2000.25,0.0078
2000.00,0.0075
1999.75,0.0071
1999.50,0.0069
1999.25,0.0069
1999.00,0.0072
1998.75,0.0077
1998.50,0.0080
1998.25,0.0081
1998.00,0.0079
1997.75,0.0075
1997.50,0.0071
1997.25,0.0069
1997.00,0.0071
1996.75,0.0076
1996.50,0.0081
1996.25,0.0084
1996.00,0.0084
1995.75,0.0082
1995.50,0.0081
1995.25,0.0081
1995.00,0.0083
1994.75,0.0084
1994.50,0.0083
1994.25,0.0081
1994.00,0.0079
1993.75,0.0077
1993.50,0.0076
1993.25,0.0075
1993.00,0.0075
1992.75,0.0074
1992.50,0.0073
1992.25,0.0070
1992.00,0.0068
1991.75,0.0067
1991.50,0.0068
1991.25,0.0071
1991.00,0.0074
1990.75,0.0077
1990.50,0.0079
1990.25,0.0079
1990.00,0.0079
1989.75,0.0079
1989.50,0.0080
1989.25,0.0081
1989.00,0.0081
1988.75,0.0081
1988.50,0.0078
1988.25,0.0075
1988.00,0.0072
1987.75,0.0072
1987.50,0.0077
1987.25,0.0085
1987.00,0.0095
1986.75,0.0100
1986.50,0.0099
1986.25,0.0091
1986.00,0.0080
1985.75,0.0070
1985.50,0.0063
1985.25,0.0061
1985.00,0.0062
1984.75,0.0065
1984.50,0.0069
1984.25,0.0073
1984.00,0.0077
1983.75,0.0081
1983.50,0.0085
1983.25,0.0087
1983.00,0.0086
1982.75,0.0081
1982.50,0.0073
1982.25,0.0065
1982.00,0.0061
1981.75,0.0059
1981.50,0.0059
1981.25,0.0060
1981.00,0.0061
1980.75,0.0063
1980.50,0.0066
1980.25,0.0072
1980.00,0.0078
1979.75,0.0083
1979.50,0.0085
1979.25,0.0084
1979.00,0.0081
1978.75,0.0078
1978.50,0.0076
1978.25,0.0073
1978.00,0.0069
1977.75,0.0066
1977.50,0.0065
1977.25,0.0067
1977.00,0.0071
1976.75,0.0072
1976.50,0.0069
1976.25,0.0064
1976.00,0.0060
1975.75,0.0061
1975.50,0.0066
1975.25,0.0071
1975.00,0.0073
1974.75,0.0070
1974.50,0.0066
1974.25,0.0063
1974.00,0.0064
1973.75,0.0068
1973.50,0.0073
1973.25,0.0078
1973.00,0.0082
1972.75,0.0084
1972.50,0.0083
1972.25,0.0078
1972.00,0.0072
1971.75,0.0068
1971.50,0.0068
1971.25,0.0071
1971.00,0.0074
1970.75,0.0075
1970.50,0.0072
1970.25,0.0068
1970.00,0.0064
1969.75,0.0063
1969.50,0.0065
1969.25,0.0069
1969.00,0.0074
1968.75,0.0078
1968.50,0.0083
1968.25,0.0087
1968.00,0.0089
1967.75,0.0089
1967.50,0.0086
1967.25,0.0082
1967.00,0.0079
1966.75,0.0076
1966.50,0.0074
1966.25,0.0074
1966.00,0.0076
1965.75,0.0079
1965.50,0.0082
1965.25,0.0083
1965.00,0.0082
1964.75,0.0082
1964.50,0.0082
1964.25,0.0082
1964.00,0.0081
1963.75,0.0080
1963.50,0.0080
1963.25,0.0084
1963.00,0.0090
1962.75,0.0096
1962.50,0.0100
1962.25,0.0102
1962.00,0.0102
1961.75,0.0099
1961.50,0.0096
1961.25,0.0094
1961.00,0.0092
1960.75,0.0092
1960.50,0.0092
1960.25,0.0091
1960.00,0.0090
1959.75,0.0091
1959.50,0.0093
1959.25,0.0097
1959.00,0.0100
1958.75,0.0101
1958.50,0.0099
1958.25,0.0096
1958.00,0.0094
1957.75,0.0094
1957.50,0.0096
1957.25,0.0097
1957.00,0.0096
1956.75,0.0093
1956.50,0.0090
1956.25,0.0088
1956.00,0.0089
1955.75,0.0091
1955.50,0.0092
1955.25,0.0091
1955.00,0.0089
1954.75,0.0087
1954.50,0.0088
1954.25,0.0092
1954.00,0.0097
1953.75,0.0103
1953.50,0.0107
1953.25,0.0108
1953.00,0.0106
1952.75,0.0102
1952.50,0.0099
1952.25,0.0098
1952.00,0.0099
1951.75,0.0100
1951.50,0.0101
1951.25,0.0103
1951.00,0.0106
1950.75,0.0109
1950.50,0.0113
1950.25,0.0115
1950.00,0.0115
1949.75,0.0114
1949.50,0.0111
1949.25,0.0107
1949.00,0.0104
1948.75,0.0104
1948.50,0.0106
1948.25,0.0111
1948.00,0.0115
1947.75,0.0118
1947.50,0.0120
1947.25,0.0120
1947.00,0.0121
1946.75,0.0121
1946.50,0.0123
1946.25,0.0125
1946.00,0.0127
1945.75,0.0128
1945.50,0.0126
1945.25,0.0120
1945.00,0.0112
1944.75,0.0104
1944.50,0.0097
1944.25,0.0093
1944.00,0.0092
1943.75,0.0094
1943.50,0.0099
1943.25,0.0105
1943.00,0.0112
1942.75,0.0117
1942.50,0.0119
1942.25,0.0119
1942.00,0.0117
1941.75,0.0114
1941.50,0.0112
1941.25,0.0110
1941.00,0.0109
1940.75,0.0108
1940.50,0.0110
1940.25,0.0114
1940.00,0.0119
1939.75,0.0124
1939.50,0.0129
1939.25,0.0132
1939.00,0.0134
1938.75,0.0132
1938.50,0.0128
1938.25,0.0122
1938.00,0.0117
1937.75,0.0114
1937.50,0.0114
1937.25,0.0116
1937.00,0.0119
1936.75,0.0122
1936.50,0.0122
1936.25,0.0121
1936.00,0.0120
1935.75,0.0119
1935.50,0.0119
1935.25,0.0118
1935.00,0.0117
1934.75,0.0115
1934.50,0.0114
1934.25,0.0114
1934.00,0.0114
1933.75,0.0113
1933.50,0.0111
1933.25,0.0110
1933.00,0.0111
1932.75,0.0115
1932.50,0.0119
1932.25,0.0122
1932.00,0.0123
1931.75,0.0123
1931.50,0.0124
1931.25,0.0125
1931.00,0.0126
1930.75,0.0127
1930.50,0.0127
1930.25,0.0127
1930.00,0.0126
1929.75,0.0126
1929.50,0.0126
1929.25,0.0125
1929.00,0.0124
1928.75,0.0123
1928.50,0.0122
1928.25,0.0122
1928.00,0.0122
1927.75,0.0123
1927.50,0.0124
1927.25,0.0124
1927.00,0.0124
1926.75,0.0124
1926.50,0.0123
1926.25,0.0121
1926.00,0.0119
1925.75,0.0119
1925.50,0.0120
1925.25,0.0122
1925.00,0.0125
1924.75,0.0129
1924.50,0.0134
1924.25,0.0138
1924.00,0.0140
1923.75,0.0139
1923.50,0.0136
1923.25,0.0131
1923.00,0.0127
1922.75,0.0125
1922.50,0.0126
1922.25,0.0129
1922.00,0.0134
1921.75,0.0138
1921.50,0.0140
1921.25,0.0142
1921.00,0.0141
1920.75,0.0139
1920.50,0.0137
1920.25,0.0135
1920.00,0.0134
1919.75,0.0132
1919.50,0.0129
1919.25,0.0127
1919.00,0.0125
1918.75,0.0126
1918.50,0.0127
1918.25,0.0129
1918.00,0.0131
1917.75,0.0133
1917.50,0.0133
1917.25,0.0132
1917.00,0.0131
1916.75,0.0130
1916.50,0.0130
1916.25,0.0130
1916.00,0.0132
1915.75,0.0132
1915.50,0.0131
1915.25,0.0129
1915.00,0.0127
1914.75,0.0127
1914.50,0.0129
1914.25,0.0132
1914.00,0.0135
1913.75,0.0138
1913.50,0.0139
1913.25,0.0137
1913.00,0.0134
1912.75,0.0132
1912.50,0.0132
1912.25,0.0133
1912.00,0.0134
1911.75,0.0134
1911.50,0.0133
1911.25,0.0133
1911.00,0.0133
1910.75,0.0134
1910.50,0.0135
1910.25,0.0135
1910.00,0.0133
1909.75,0.0131
1909.50,0.0129
1909.25,0.0129
1909.00,0.0129
1908.75,0.0129
1908.50,0.0130
1908.25,0.0132
1908.00,0.0134
1907.75,0.0134
1907.50,0.0133
1907.25,0.0131
1907.00,0.0129
1906.75,0.0130
1906.50,0.0133
1906.25,0.0135
1906.00,0.0136
1905.75,0.0134
1905.50,0.0132
1905.25,0.0130
1905.00,0.0130
1904.75,0.0130
1904.50,0.0129
1904.25,0.0128
1904.00,0.0128
1903.75,0.0128
1903.50,0.0129
1903.25,0.0130
1903.00,0.0132
1902.75,0.0134
1902.50,0.0136
1902.25,0.0138
1902.00,0.0138
1901.75,0.0137
1901.50,0.0134
1901.25,0.0132
1901.00,0.0132
1900.75,0.0133
1900.50,0.0135
1900.25,0.0137
1900.00,0.0136
1899.75,0.0134
1899.50,0.0132
1899.25,0.0133
1899.00,0.0137
1898.75,0.0142
1898.50,0.0145
1898.25,0.0146
1898.00,0.0144
1897.75,0.0141
1897.50,0.0139
1897.25,0.0136
1897.00,0.0135
1896.75,0.0135
1896.50,0.0136
1896.25,0.0139
1896.00,0.0141
1895.75,0.0143
1895.50,0.0143
1895.25,0.0141
1895.00,0.0139
1894.75,0.0138
1894.50,0.0139
1894.25,0.0140
1894.00,0.0140
1893.75,0.0141
1893.50,0.0141
1893.25,0.0141
1893.00,0.0141
1892.75,0.0140
1892.50,0.0139
1892.25,0.0138
1892.00,0.0138
1891.75,0.0138
1891.50,0.0138
1891.25,0.0138
1891.00,0.0140
1890.75,0.0142
1890.50,0.0144
1890.25,0.0145
1890.00,0.0144
1889.75,0.0141
1889.50,0.0137
1889.25,0.0133
1889.00,0.0132
1888.75,0.0133
1888.50,0.0133
1888.25,0.0135
1888.00,0.0138
1887.75,0.0143
1887.50,0.0147
1887.25,0.0149
1887.00,0.0148
1886.75,0.0145
1886.50,0.0141
1886.25,0.0140
1886.00,0.0140
1885.75,0.0140
1885.50,0.0141
1885.25,0.0141
1885.00,0.0141
1884.75,0.0142
1884.50,0.0143
1884.25,0.0145
1884.00,0.0147
1883.75,0.0148
1883.50,0.0147
1883.25,0.0146
1883.00,0.0144
1882.75,0.0141
1882.50,0.0139
1882.25,0.0137
1882.00,0.0137
1881.75,0.0139
1881.50,0.0141
1881.25,0.0143
1881.00,0.0145
1880.75,0.0146
1880.50,0.0146
1880.25,0.0147
1880.00,0.0148
1879.75,0.0149
1879.50,0.0150
1879.25,0.0150
1879.00,0.0149
1878.75,0.0147
1878.50,0.0145
1878.25,0.0144
1878.00,0.0143
1877.75,0.0142
1877.50,0.0142
1877.25,0.0142
1877.00,0.0141
1876.75,0.0140
1876.50,0.0139
1876.25,0.0138
1876.00,0.0140
1875.75,0.0143
1875.50,0.0147
1875.25,0.0150
1875.00,0.0152
1874.75,0.0153
1874.50,0.0154
1874.25,0.0155
1874.00,0.0155
1873.75,0.0156
1873.50,0.0156
1873.25,0.0154
1873.00,0.0151
1872.75,0.0148
1872.50,0.0145
1872.25,0.0144
1872.00,0.0145
1871.75,0.0146
1871.50,0.0147
1871.25,0.0148
1871.00,0.0148
1870.75,0.0147
1870.50,0.0147
1870.25,0.0146
1870.00,0.0145
1869.75,0.0143
1869.50,0.0140
1869.25,0.0138
1869.00,0.0139
1868.75,0.0143
1868.50,0.0147
1868.25,0.0150
1868.00,0.0152
1867.75,0.0151
1867.50,0.0150
1867.25,0.0148
1867.00,0.0148
1866.75,0.0149
1866.50,0.0149
1866.25,0.0148
1866.00,0.0146
1865.75,0.0144
1865.50,0.0142
1865.25,0.0141
1865.00,0.0141
1864.75,0.0141
1864.50,0.0142
1864.25,0.0143
1864.00,0.0144
1863.75,0.0146
1863.50,0.0149
1863.25,0.0151
1863.00,0.0153
1862.75,0.0153
1862.50,0.0153
1862.25,0.0151
1862.00,0.0149
1861.75,0.0147
1861.50,0.0146
1861.25,0.0145
1861.00,0.0145
1860.75,0.0145
1860.50,0.0146
1860.25,0.0148
1860.00,0.0151
1859.75,0.0153
1859.50,0.0154
1859.25,0.0154
1859.00,0.0154
1858.75,0.0153
1858.50,0.0153
1858.25,0.0152
1858.00,0.0153
1857.75,0.0153
1857.50,0.0153
1857.25,0.0153
1857.00,0.0152
1856.75,0.0151
1856.50,0.0150
1856.25,0.0148
1856.00,0.0148
1855.75,0.0150
1855.50,0.0152
1855.25,0.0155
1855.00,0.0156
1854.75,0.0156
1854.50,0.0156
1854.25,0.0155
1854.00,0.0154
1853.75,0.0153
1853.50,0.0153
1853.25,0.0153
1853.00,0.0154
1852.75,0.0154
1852.50,0.0153
1852.25,0.0151
1852.00,0.0149
1851.75,0.0147
1851.50,0.0147
1851.25,0.0147
1851.00,0.0148
1850.75,0.0149
1850.50,0.0150
1850.25,0.0152
1850.00,0.0155
1849.75,0.0159
1849.50,0.0161
1849.25,0.0161
1849.00,0.0159
1848.75,0.0156
1848.50,0.0152
1848.25,0.0148
1848.00,0.0146
1847.75,0.0144
1847.50,0.0145
1847.25,0.0148
1847.00,0.0150
1846.75,0.0153
1846.50,0.0155
1846.25,0.0156
1846.00,0.0156
1845.75,0.0155
1845.50,0.0154
1845.25,0.0152
1845.00,0.0151
1844.75,0.0150
1844.50,0.0150
1844.25,0.0152
1844.00,0.0156
1843.75,0.0159
1843.50,0.0160
1843.25,0.0161
1843.00,0.0162
1842.75,0.0162
1842.50,0.0161
1842.25,0.0159
1842.00,0.0157
1841.75,0.0155
1841.50,0.0154
1841.25,0.0154
1841.00,0.0155
1840.75,0.0157
1840.50,0.0158
1840.25,0.0159
1840.00,0.0158
1839.75,0.0156
1839.50,0.0156
1839.25,0.0157
1839.00,0.0159
1838.75,0.0160
1838.50,0.0159
1838.25,0.0157
1838.00,0.0155
1837.75,0.0153
1837.50,0.0153
1837.25,0.0154
1837.00,0.0156
1836.75,0.0158
1836.50,0.0160
1836.25,0.0160
1836.00,0.0160
1835.75,0.0159
1835.50,0.0159
1835.25,0.0159
1835.00,0.0159
1834.75,0.0159
1834.50,0.0158
1834.25,0.0157
1834.00,0.0157
1833.75,0.0156
1833.50,0.0157
1833.25,0.0158
1833.00,0.0160
1832.75,0.0161
1832.50,0.0161
1832.25,0.0162
1832.00,0.0162
1831.75,0.0162
1831.50,0.0162
1831.25,0.0161
1831.00,0.0160
1830.75,0.0159
1830.50,0.0157
1830.25,0.0156
1830.00,0.0155
1829.75,0.0154
1829.50,0.0154
1829.25,0.0155
1829.00,0.0157
1828.75,0.0160
1828.50,0.0162
1828.25,0.0162
1828.00,0.0160
1827.75,0.0158
1827.50,0.0156
1827.25,0.0156
1827.00,0.0158
1826.75,0.0160
1826.50,0.0162
1826.25,0.0164
1826.00,0.0165
1825.75,0.0166
1825.50,0.0165
1825.25,0.0163
1825.00,0.0161
1824.75,0.0162
1824.50,0.0163
1824.25,0.0164
1824.00,0.0164
1823.75,0.0162
1823.50,0.0160
1823.25,0.0158
1823.00,0.0157
1822.75,0.0157
1822.50,0.0157
1822.25,0.0158
1822.00,0.0158
1821.75,0.0159
1821.50,0.0160
1821.25,0.0160
1821.00,0.0161
1820.75,0.0162
1820.50,0.0162
1820.25,0.0163
1820.00,0.0163
1819.75,0.0163
1819.50,0.0163
1819.25,0.0163
1819.00,0.0164
1818.75,0.0164
1818.50,0.0165
1818.25,0.0165
1818.00,0.0165
1817.75,0.0165
1817.50,0.0164
1817.25,0.0164
1817.00,0.0163
1816.75,0.0163
1816.50,0.0164
1816.25,0.0165
1816.00,0.0166
1815.75,0.0166
1815.50,0.0165
1815.25,0.0164
1815.00,0.0164
1814.75,0.0163
1814.50,0.0163
1814.25,0.0165
1814.00,0.0166
1813.75,0.0166
1813.50,0.0166
1813.25,0.0165
1813.00,0.0163
1812.75,0.0163
1812.50,0.0163
1812.25,0.0163
1812.00,0.0164
1811.75,0.0165
1811.50,0.0167
1811.25,0.0167
1811.00,0.0166
1810.75,0.0163
1810.50,0.0160
1810.25,0.0159
1810.00,0.0161
1809.75,0.0164
1809.50,0.0167
1809.25,0.0168
1809.00,0.0168
1808.75,0.0168
1808.50,0.0166
1808.25,0.0165
1808.00,0.0165
1807.75,0.0164
1807.50,0.0164
1807.25,0.0164
1807.00,0.0165
1806.75,0.0166
1806.50,0.0168
1806.25,0.0169
1806.00,0.0170
1805.75,0.0169
1805.50,0.0169
1805.25,0.0168
1805.00,0.0167
1804.75,0.0166
1804.50,0.0165
1804.25,0.0164
1804.00,0.0164
1803.75,0.0164
1803.50,0.0164
1803.25,0.0165
1803.00,0.0165
1802.75,0.0166
1802.50,0.0167
1802.25,0.0168
1802.00,0.0170
1801.75,0.0171
1801.50,0.0171
1801.25,0.0171
1801.00,0.0171
1800.75,0.0170
1800.50,0.0170
1800.25,0.0169
1800.00,0.0169
1799.75,0.0170
1799.50,0.0170
1799.25,0.0170
1799.00,0.0170
1798.75,0.0170
1798.50,0.0169
1798.25,0.0169
1798.00,0.0169
1797.75,0.0169
1797.50,0.0169
1797.25,0.0170
1797.00,0.0171
1796.75,0.0172
1796.50,0.0173
1796.25,0.0173
1796.00,0.0173
1795.75,0.0172
1795.50,0.0172
1795.25,0.0172
1795.00,0.0174
1794.75,0.0176
1794.50,0.0177
1794.25,0.0177
1794.00,0.0176
1793.75,0.0175
1793.50,0.0175
1793.25,0.0176
1793.00,0.0178
1792.75,0.0178
1792.50,0.0175
1792.25,0.0172
1792.00,0.0172
1791.75,0.0172
1791.50,0.0172
1791.25,0.0171
1791.00,0.0169
1790.75,0.0167
1790.50,0.0166
1790.25,0.0168
1790.00,0.0169
1789.75,0.0171
1789.50,0.0171
1789.25,0.0170
1789.00,0.0169
1788.75,0.0169
1788.50,0.0169
1788.25,0.0169
1788.00,0.0170
1787.75,0.0171
1787.50,0.0172
1787.25,0.0173
1787.00,0.0173
1786.75,0.0172
1786.50,0.0171
1786.25,0.0171
1786.00,0.0171
1785.75,0.0171
1785.50,0.0171
1785.25,0.0172
1785.00,0.0172
1784.75,0.0172
1784.50,0.0171
1784.25,0.0171
1784.00,0.0171
1783.75,0.0171
1783.50,0.0173
1783.25,0.0174
1783.00,0.0175
1782.75,0.0176
1782.50,0.0176
1782.25,0.0176
1782.00,0.0176
1781.75,0.0175
1781.50,0.0173
1781.25,0.0171
1781.00,0.0168
1780.75,0.0167
1780.50,0.0167
1780.25,0.0168
1780.00,0.0170
1779.75,0.0171
1779.50,0.0172
1779.25,0.0172
1779.00,0.0171
1778.75,0.0172
1778.50,0.0173
1778.25,0.0174
1778.00,0.0176
1777.75,0.0177
1777.50,0.0177
1777.25,0.0177
1777.00,0.0177
1776.75,0.0177
1776.50,0.0176
1776.25,0.0175
1776.00,0.0173
1775.75,0.0172
1775.50,0.0171
1775.25,0.0172
1775.00,0.0173
1774.75,0.0174
1774.50,0.0175
1774.25,0.0176
1774.00,0.0175
1773.75,0.0175
1773.50,0.0174
1773.25,0.0173
1773.00,0.0174
1772.75,0.0176
1772.50,0.0178
1772.25,0.0179
1772.00,0.0179
1771.75,0.0180
1771.50,0.0180
1771.25,0.0180
1771.00,0.0179
1770.75,0.0178
1770.50,0.0178
1770.25,0.0178
1770.00,0.0178
1769.75,0.0177
1769.50,0.0176
1769.25,0.0174
1769.00,0.0172
1768.75,0.0170
1768.50,0.0167
1768.25,0.0166
1768.00,0.0168
1767.75,0.0171
1767.50,0.0175
1767.25,0.0177
1767.00,0.0178
1766.75,0.0178
1766.50,0.0177
1766.25,0.0177
1766.00,0.0176
1765.75,0.0176
1765.50,0.0176
1765.25,0.0176
1765.00,0.0176
1764.75,0.0176
1764.50,0.0175
1764.25,0.0175
1764.00,0.0174
1763.75,0.0174
1763.50,0.0174
1763.25,0.0174
1763.00,0.0175
1762.75,0.0175
1762.50,0.0175
1762.25,0.0175
1762.00,0.0175
1761.75,0.0176
1761.50,0.0175
1761.25,0.0175
1761.00,0.0175
1760.75,0.0174
1760.50,0.0173
1760.25,0.0174
1760.00,0.0175
1759.75,0.0177
1759.50,0.0178
1759.25,0.0179
1759.00,0.0178
1758.75,0.0176
1758.50,0.0175
1758.25,0.0174
1758.00,0.0173
1757.75,0.0174
1757.50,0.0174
1757.25,0.0175
1757.00,0.0176
1756.75,0.0177
1756.50,0.0175
1756.25,0.0173
1756.00,0.0171
1755.75,0.0170
1755.50,0.0169
1755.25,0.0169
1755.00,0.0170
1754.75,0.0172
1754.50,0.0174
1754.25,0.0175
1754.00,0.0176
1753.75,0.0177
1753.50,0.0178
1753.25,0.0179
1753.00,0.0179
1752.75,0.0179
1752.50,0.0178
1752.25,0.0178
1752.00,0.0179
1751.75,0.0181
1751.50,0.0183
1751.25,0.0185
1751.00,0.0184
1750.75,0.0181
1750.50,0.0179
1750.25,0.0177
1750.00,0.0176
1749.75,0.0174
1749.50,0.0173
1749.25,0.0173
1749.00,0.0173
1748.75,0.0174
1748.50,0.0175
1748.25,0.0175
1748.00,0.0175
1747.75,0.0174
1747.50,0.0173
1747.25,0.0173
1747.00,0.0174
1746.75,0.0175
1746.50,0.0176
1746.25,0.0176
1746.00,0.0175
1745.75,0.0174
1745.50,0.0174
1745.25,0.0176
1745.00,0.0177
1744.75,0.0178
1744.50,0.0179
1744.25,0.0178
1744.00,0.0177
1743.75,0.0175
1743.50,0.0175
1743.25,0.0175
1743.00,0.0175
1742.75,0.0175
1742.50,0.0174
1742.25,0.0174
1742.00,0.0174
1741.75,0.0174
1741.50,0.0174
1741.25,0.0173
1741.00,0.0172
1740.75,0.0172
1740.50,0.0171
1740.25,0.0170
1740.00,0.0169
1739.75,0.0169
1739.50,0.0171
1739.25,0.0174
1739.00,0.0177
1738.75,0.0179
1738.50,0.0180
1738.25,0.0180
1738.00,0.0179
1737.75,0.0179
1737.50,0.0178
1737.25,0.0178
1737.00,0.0178
1736.75,0.0178
1736.50,0.0178
1736.25,0.0178
1736.00,0.0179
1735.75,0.0179
1735.50,0.0178
1735.25,0.0178
1735.00,0.0178
1734.75,0.0178
1734.50,0.0178
1734.25,0.0178
1734.00,0.0181
1733.75,0.0184
1733.50,0.0187
1733.25,0.0188
1733.00,0.0187
1732.75,0.0186
1732.50,0.0184
1732.25,0.0183
1732.00,0.0181
1731.75,0.0179
1731.50,0.0176
1731.25,0.0173
1731.00,0.0172
1730.75,0.0172
1730.50,0.0172
1730.25,0.0174
1730.00,0.0174
1729.75,0.0174
1729.50,0.0173
1729.25,0.0173
1729.00,0.0174
1728.75,0.0175
1728.50,0.0176
1728.25,0.0176
1728.00,0.0177
1727.75,0.0177
1727.50,0.0177
1727.25,0.0177
1727.00,0.0177
1726.75,0.0176
1726.50,0.0176
1726.25,0.0176
1726.00,0.0176
1725.75,0.0175
1725.50,0.0175
1725.25,0.0174
1725.00,0.0175
1724.75,0.0176
1724.50,0.0177
1724.25,0.0178
1724.00,0.0179
1723.75,0.0179
1723.50,0.0179
1723.25,0.0178
1723.00,0.0178
1722.75,0.0178
1722.50,0.0179
1722.25,0.0179
1722.00,0.0179
1721.75,0.0179
1721.50,0.0179
1721.25,0.0179
1721.00,0.0179
1720.75,0.0178
1720.50,0.0178
1720.25,0.0178
1720.00,0.0179
1719.75,0.0179
1719.50,0.0178
1719.25,0.0178
1719.00,0.0177
1718.75,0.0177
1718.50,0.0179
1718.25,0.0181
1718.00,0.0183
1717.75,0.0184
1717.50,0.0184
1717.25,0.0182
1717.00,0.0179
1716.75,0.0179
1716.50,0.0181
1716.25,0.0182
1716.00,0.0183
1715.75,0.0183
1715.50,0.0182
1715.25,0.0181
1715.00,0.0181
1714.75,0.0181
1714.50,0.0183
1714.25,0.0183
1714.00,0.0182
1713.75,0.0180
1713.50,0.0179
1713.25,0.0178
1713.00,0.0178
1712.75,0.0177
1712.50,0.0177
1712.25,0.0177
1712.00,0.0177
1711.75,0.0179
1711.50,0.0180
1711.25,0.0182
1711.00,0.0183
1710.75,0.0183
1710.50,0.0182
1710.25,0.0181
1710.00,0.0180
1709.75,0.0179
1709.50,0.0179
1709.25,0.0179
1709.00,0.0180
1708.75,0.0180
1708.50,0.0181
1708.25,0.0180
1708.00,0.0180
1707.75,0.0179
1707.50,0.0178
1707.25,0.0178
1707.00,0.0178
1706.75,0.0177
1706.50,0.0177
1706.25,0.0179
1706.00,0.0181
1705.75,0.0183
1705.50,0.0183
1705.25,0.0183
1705.00,0.0181
1704.75,0.0180
1704.50,0.0178
1704.25,0.0178
1704.00,0.0179
1703.75,0.0179
1703.50,0.0180
1703.25,0.0180
1703.00,0.0181
1702.75,0.0182
1702.50,0.0182
1702.25,0.0182
1702.00,0.0181
1701.75,0.0180
1701.50,0.0178
1701.25,0.0175
1701.00,0.0171
1700.75,0.0162
1700.50,0.0152
1700.25,0.0156
1700.00,0.0167
1699.75,0.0175
1699.50,0.0176
1699.25,0.0176
1699.00,0.0178
1698.75,0.0180
1698.50,0.0183
1698.25,0.0185
1698.00,0.0186
1697.75,0.0186
1697.50,0.0185
1697.25,0.0185
1697.00,0.0185
1696.75,0.0183
1696.50,0.0181
1696.25,0.0179
1696.00,0.0180
1695.75,0.0181
1695.50,0.0182
1695.25,0.0184
1695.00,0.0185
1694.75,0.0184
1694.50,0.0183
1694.25,0.0182
1694.00,0.0181
1693.75,0.0181
1693.50,0.0180
1693.25,0.0179
1693.00,0.0178
1692.75,0.0178
1692.50,0.0178
1692.25,0.0178
1692.00,0.0178
1691.75,0.0178
1691.50,0.0178
1691.25,0.0180
1691.00,0.0181
1690.75,0.0183
1690.50,0.0183
1690.25,0.0183
1690.00,0.0184
1689.75,0.0184
1689.50,0.0185
1689.25,0.0186
1689.00,0.0185
1688.75,0.0184
1688.50,0.0182
1688.25,0.0180
1688.00,0.0180
1687.75,0.0182
1687.50,0.0184
1687.25,0.0185
1687.00,0.0186
1686.75,0.0186
1686.50,0.0187
1686.25,0.0188
1686.00,0.0188
1685.75,0.0186
1685.50,0.0183
1685.25,0.0179
1685.00,0.0175
1684.75,0.0174
1684.50,0.0175
1684.25,0.0177
1684.00,0.0179
1683.75,0.0181
1683.50,0.0182
1683.25,0.0181
1683.00,0.0182
1682.75,0.0183
1682.50,0.0185
1682.25,0.0185
1682.00,0.0186
1681.75,0.0186
1681.50,0.0187
1681.25,0.0187
1681.00,0.0187
1680.75,0.0187
1680.50,0.0186
1680.25,0.0185
1680.00,0.0182
1679.75,0.0180
1679.50,0.0180
1679.25,0.0180
1679.00,0.0181
1678.75,0.0182
1678.50,0.0182
1678.25,0.0182
1678.00,0.0183
1677.75,0.0183
1677.50,0.0184
1677.25,0.0184
1677.00,0.0183
1676.75,0.0182
1676.50,0.0182
1676.25,0.0182
1676.00,0.0183
1675.75,0.0186
1675.50,0.0190
1675.25,0.0191
1675.00,0.0189
1674.75,0.0186
1674.50,0.0183
1674.25,0.0183
1674.00,0.0184
1673.75,0.0185
1673.50,0.0186
1673.25,0.0186
1673.00,0.0185
1672.75,0.0184
1672.50,0.0183
1672.25,0.0181
1672.00,0.0179
1671.75,0.0177
1671.50,0.0177
1671.25,0.0178
1671.00,0.0181
1670.75,0.0184
1670.50,0.0186
1670.25,0.0186
1670.00,0.0186
1669.75,0.0185
1669.50,0.0182
1669.25,0.0179
1669.00,0.0179
1668.75,0.0182
1668.50,0.0184
1668.25,0.0185
1668.00,0.0186
1667.75,0.0186
1667.50,0.0186
1667.25,0.0185
1667.00,0.0185
1666.75,0.0185
1666.50,0.0185
1666.25,0.0185
1666.00,0.0185
1665.75,0.0185
1665.50,0.0185
1665.25,0.0184
1665.00,0.0184
1664.75,0.0184
1664.50,0.0184
1664.25,0.0184
1664.00,0.0185
1663.75,0.0186
1663.50,0.0187
1663.25,0.0187
1663.00,0.0187
1662.75,0.0186
1662.50,0.0185
1662.25,0.0185
1662.00,0.0185
1661.75,0.0184
1661.50,0.0184
1661.25,0.0184
1661.00,0.0185
1660.75,0.0185
1660.50,0.0185
1660.25,0.0185
1660.00,0.0185
1659.75,0.0186
1659.50,0.0186
1659.25,0.0187
1659.00,0.0187
1658.75,0.0186
1658.50,0.0186
1658.25,0.0186
1658.00,0.0187
1657.75,0.0188
1657.50,0.0189
1657.25,0.0189
1657.00,0.0189
1656.75,0.0188
1656.50,0.0187
1656.25,0.0186
1656.00,0.0185
1655.75,0.0184
1655.50,0.0183
1655.25,0.0182
1655.00,0.0182
1654.75,0.0184
1654.50,0.0186
1654.25,0.0189
1654.00,0.0191
1653.75,0.0193
1653.50,0.0199
1653.25,0.0210
1653.00,0.0229
1652.75,0.0227
1652.50,0.0200
1652.25,0.0188
1652.00,0.0186
1651.75,0.0184
1651.50,0.0185
1651.25,0.0184
1651.00,0.0185
1650.75,0.0185
1650.50,0.0186
1650.25,0.0187
1650.00,0.0188
1649.75,0.0188
1649.50,0.0188
1649.25,0.0188
1649.00,0.0188
1648.75,0.0187
1648.50,0.0186
1648.25,0.0185
1648.00,0.0185
1647.75,0.0186
1647.50,0.0187
1647.25,0.0188
1647.00,0.0188
1646.75,0.0187
1646.50,0.0188
1646.25,0.0190
1646.00,0.0193
1645.75,0.0194
1645.50,0.0191
1645.25,0.0189
1645.00,0.0187
1644.75,0.0187
1644.50,0.0187
1644.25,0.0188
1644.00,0.0188
1643.75,0.0187
1643.50,0.0187
1643.25,0.0186
1643.00,0.0186
1642.75,0.0186
1642.50,0.0185
1642.25,0.0185
1642.00,0.0184
1641.75,0.0185
1641.50,0.0186
1641.25,0.0188
1641.00,0.0189
1640.75,0.0191
1640.50,0.0192
1640.25,0.0192
1640.00,0.0191
1639.75,0.0190
1639.50,0.0189
1639.25,0.0188
1639.00,0.0188
1638.75,0.0188
1638.50,0.0189
1638.25,0.0189
1638.00,0.0189
1637.75,0.0188
1637.50,0.0187
1637.25,0.0187
1637.00,0.0187
1636.75,0.0188
1636.50,0.0189
1636.25,0.0189
1636.00,0.0187
1635.75,0.0183
1635.50,0.0176
1635.25,0.0173
1635.00,0.0178
1634.75,0.0185
1634.50,0.0189
1634.25,0.0190
1634.00,0.0189
1633.75,0.0188
1633.50,0.0187
1633.25,0.0187
1633.00,0.0188
1632.75,0.0189
1632.50,0.0190
1632.25,0.0190
1632.00,0.0190
1631.75,0.0189
1631.50,0.0189
1631.25,0.0188
1631.00,0.0188
1630.75,0.0188
1630.50,0.0188
1630.25,0.0189
1630.00,0.0189
1629.75,0.0190
1629.50,0.0191
1629.25,0.0192
1629.00,0.0193
1628.75,0.0193
1628.50,0.0192
1628.25,0.0191
1628.00,0.0190
1627.75,0.0189
1627.50,0.0188
1627.25,0.0188
1627.00,0.0189
1626.75,0.0189
1626.50,0.0190
1626.25,0.0191
1626.00,0.0191
1625.75,0.0191
1625.50,0.0192
1625.25,0.0192
1625.00,0.0193
1624.75,0.0193
1624.50,0.0192
1624.25,0.0190
1624.00,0.0190
1623.75,0.0191
1623.50,0.0193
1623.25,0.0193
1623.00,0.0191
1622.75,0.0190
1622.50,0.0189
1622.25,0.0191
1622.00,0.0192
1621.75,0.0193
1621.50,0.0193
1621.25,0.0191
1621.00,0.0189
1620.75,0.0188
1620.50,0.0188
1620.25,0.0190
1620.00,0.0191
1619.75,0.0191
1619.50,0.0191
1619.25,0.0191
1619.00,0.0190
1618.75,0.0190
1618.50,0.0189
1618.25,0.0190
1618.00,0.0191
1617.75,0.0192
1617.50,0.0193
1617.25,0.0195
1617.00,0.0198
1616.75,0.0198
1616.50,0.0194
1616.25,0.0188
1616.00,0.0186
1615.75,0.0188
1615.50,0.0190
1615.25,0.0192
1615.00,0.0193
1614.75,0.0193
1614.50,0.0192
1614.25,0.0192
1614.00,0.0191
1613.75,0.0190
1613.50,0.0190
1613.25,0.0189
1613.00,0.0189
1612.75,0.0190
1612.50,0.0191
1612.25,0.0192
1612.00,0.0194
1611.75,0.0195
1611.50,0.0195
1611.25,0.0196
1611.00,0.0197
1610.75,0.0197
1610.50,0.0197
1610.25,0.0195
1610.00,0.0194
1609.75,0.0193
1609.50,0.0192
1609.25,0.0193
1609.00,0.0194
1608.75,0.0194
1608.50,0.0195
1608.25,0.0196
1608.00,0.0196
1607.75,0.0196
1607.50,0.0197
1607.25,0.0197
1607.00,0.0197
1606.75,0.0197
1606.50,0.0196
1606.25,0.0196
1606.00,0.0196
1605.75,0.0195
1605.50,0.0194
1605.25,0.0193
1605.00,0.0193
1604.75,0.0193
1604.50,0.0193
1604.25,0.0194
1604.00,0.0194
1603.75,0.0195
1603.50,0.0196
1603.25,0.0197
1603.00,0.0197
1602.75,0.0197
1602.50,0.0197
1602.25,0.0196
1602.00,0.0195
1601.75,0.0195
1601.50,0.0195
1601.25,0.0196
1601.00,0.0197
1600.75,0.0197
1600.50,0.0198
1600.25,0.0198
1600.00,0.0199
1599.75,0.0199
1599.50,0.0199
1599.25,0.0199
1599.00,0.0200
1598.75,0.0200
1598.50,0.0201
1598.25,0.0201
1598.00,0.0201
1597.75,0.0200
1597.50,0.0201
1597.25,0.0201
1597.00,0.0202
1596.75,0.0202
1596.50,0.0202
1596.25,0.0201
1596.00,0.0201
1595.75,0.0201
1595.50,0.0200
1595.25,0.0200
1595.00,0.0199
1594.75,0.0199
1594.50,0.0198
1594.25,0.0197
1594.00,0.0197
1593.75,0.0196
1593.50,0.0196
1593.25,0.0197
1593.00,0.0197
1592.75,0.0197
1592.50,0.0196
1592.25,0.0196
1592.00,0.0195
1591.75,0.0195
1591.50,0.0195
1591.25,0.0196
1591.00,0.0196
1590.75,0.0196
1590.50,0.0196
1590.25,0.0195
1590.00,0.0193
1589.75,0.0191
1589.50,0.0191
1589.25,0.0191
1589.00,0.0192
1588.75,0.0194
1588.50,0.0195
1588.25,0.0196
1588.00,0.0197
1587.75,0.0197
1587.50,0.0197
1587.25,0.0196
1587.00,0.0194
1586.75,0.0192
1586.50,0.0192
1586.25,0.0192
1586.00,0.0194
1585.75,0.0195
1585.50,0.0196
1585.25,0.0195
1585.00,0.0194
1584.75,0.0193
1584.50,0.0193
1584.25,0.0193
1584.00,0.0193
1583.75,0.0194
1583.50,0.0194
1583.25,0.0194
1583.00,0.0194
1582.75,0.0195
1582.50,0.0196
1582.25,0.0196
1582.00,0.0196
1581.75,0.0195
1581.50,0.0194
1581.25,0.0193
1581.00,0.0193
1580.75,0.0193
1580.50,0.0194
1580.25,0.0195
1580.00,0.0195
1579.75,0.0195
1579.50,0.0194
1579.25,0.0194
1579.00,0.0194
1578.75,0.0193
1578.50,0.0192
1578.25,0.0192
1578.00,0.0192
1577.75,0.0193
1577.50,0.0194
1577.25,0.0196
1577.00,0.0197
1576.75,0.0198
1576.50,0.0202
1576.25,0.0205
1576.00,0.0203
1575.75,0.0197
1575.50,0.0193
1575.25,0.0192
1575.00,0.0192
1574.75,0.0193
1574.50,0.0194
1574.25,0.0194
1574.00,0.0194
1573.75,0.0194
1573.50,0.0194
1573.25,0.0193
1573.00,0.0193
1572.75,0.0192
1572.50,0.0191
1572.25,0.0190
1572.00,0.0190
1571.75,0.0190
1571.50,0.0191
1571.25,0.0193
1571.00,0.0195
1570.75,0.0197
1570.50,0.0198
1570.25,0.0199
1570.00,0.0200
1569.75,0.0201
1569.50,0.0201
1569.25,0.0199
1569.00,0.0196
1568.75,0.0193
1568.50,0.0192
1568.25,0.0192
1568.00,0.0192
1567.75,0.0192
1567.50,0.0192
1567.25,0.0193
1567.00,0.0192
1566.75,0.0192
1566.50,0.0191
1566.25,0.0191
1566.00,0.0191
1565.75,0.0192
1565.50,0.0192
1565.25,0.0192
1565.00,0.0190
1564.75,0.0189
1564.50,0.0188
1564.25,0.0190
1564.00,0.0192
1563.75,0.0193
1563.50,0.0193
1563.25,0.0192
1563.00,0.0192
1562.75,0.0192
1562.50,0.0192
1562.25,0.0193
1562.00,0.0194
1561.75,0.0194
1561.50,0.0194
1561.25,0.0193
1561.00,0.0191
1560.75,0.0189
1560.50,0.0187
1560.25,0.0186
1560.00,0.0190
1559.75,0.0200
1559.50,0.0205
1559.25,0.0205
1559.00,0.0203
1558.75,0.0199
1558.50,0.0192
1558.25,0.0185
1558.00,0.0183
1557.75,0.0186
1557.50,0.0192
1557.25,0.0195
1557.00,0.0194
1556.75,0.0192
1556.50,0.0190
1556.25,0.0189
1556.00,0.0189
1555.75,0.0190
1555.50,0.0191
1555.25,0.0192
1555.00,0.0193
1554.75,0.0194
1554.50,0.0194
1554.25,0.0194
1554.00,0.0192
1553.75,0.0192
1553.50,0.0193
1553.25,0.0194
1553.00,0.0194
1552.75,0.0195
1552.50,0.0195
1552.25,0.0194
1552.00,0.0194
1551.75,0.0193
1551.50,0.0192
1551.25,0.0191
1551.00,0.0191
1550.75,0.0190
1550.50,0.0190
1550.25,0.0192
1550.00,0.0194
1549.75,0.0196
1549.50,0.0195
1549.25,0.0193
1549.00,0.0192
1548.75,0.0190
1548.50,0.0190
1548.25,0.0190
1548.00,0.0190
1547.75,0.0190
1547.50,0.0190
1547.25,0.0189
1547.00,0.0189
1546.75,0.0190
1546.50,0.0191
1546.25,0.0192
1546.00,0.0193
1545.75,0.0194
1545.50,0.0197
1545.25,0.0200
1545.00,0.0202
1544.75,0.0201
1544.50,0.0199
1544.25,0.0197
1544.00,0.0195
1543.75,0.0193
1543.50,0.0191
1543.25,0.0190
1543.00,0.0190
1542.75,0.0192
1542.50,0.0196
1542.25,0.0200
1542.00,0.0202
1541.75,0.0200
1541.50,0.0196
1541.25,0.0193
1541.00,0.0191
1540.75,0.0189
1540.50,0.0188
1540.25,0.0188
1540.00,0.0186
1539.75,0.0183
1539.50,0.0178
1539.25,0.0173
1539.00,0.0172
1538.75,0.0175
1538.50,0.0180
1538.25,0.0183
1538.00,0.0185
1537.75,0.0185
1537.50,0.0186
1537.25,0.0187
1537.00,0.0188
1536.75,0.0188
1536.50,0.0189
1536.25,0.0190
1536.00,0.0191
1535.75,0.0192
1535.50,0.0193
1535.25,0.0193
1535.00,0.0193
1534.75,0.0192
1534.50,0.0191
1534.25,0.0190
1534.00,0.0188
1533.75,0.0185
1533.50,0.0182
1533.25,0.0181
1533.00,0.0183
1532.75,0.0185
1532.50,0.0187
1532.25,0.0187
1532.00,0.0186
1531.75,0.0185
1531.50,0.0184
1531.25,0.0183
1531.00,0.0184
1530.75,0.0186
1530.50,0.0187
1530.25,0.0187
1530.00,0.0187
1529.75,0.0187
1529.50,0.0187
1529.25,0.0188
1529.00,0.0189
1528.75,0.0189
1528.50,0.0188
1528.25,0.0188
1528.00,0.0188
1527.75,0.0187
1527.50,0.0187
1527.25,0.0187
1527.00,0.0188
1526.75,0.0189
1526.50,0.0190
1526.25,0.0192
1526.00,0.0192
1525.75,0.0193
1525.50,0.0192
1525.25,0.0192
1525.00,0.0191
1524.75,0.0191
1524.50,0.0191
1524.25,0.0191
1524.00,0.0190
1523.75,0.0190
1523.50,0.0189
1523.25,0.0189
1523.00,0.0191
1522.75,0.0195
1522.50,0.0200
1522.25,0.0203
1522.00,0.0204
1521.75,0.0202
1521.50,0.0199
1521.25,0.0195
1521.00,0.0191
1520.75,0.0190
1520.50,0.0190
1520.25,0.0190
1520.00,0.0190
1519.75,0.0188
1519.50,0.0187
1519.25,0.0186
1519.00,0.0186
1518.75,0.0186
1518.50,0.0187
1518.25,0.0188
1518.00,0.0189
1517.75,0.0190
1517.50,0.0192
1517.25,0.0194
1517.00,0.0195
1516.75,0.0193
1516.50,0.0189
1516.25,0.0187
1516.00,0.0187
1515.75,0.0188
1515.50,0.0188
1515.25,0.0188
1515.00,0.0188
1514.75,0.0189
1514.50,0.0189
1514.25,0.0189
1514.00,0.0189
1513.75,0.0188
1513.50,0.0187
1513.25,0.0186
1513.00,0.0185
1512.75,0.0184
1512.50,0.0184
1512.25,0.0186
1512.00,0.0188
1511.75,0.0190
1511.50,0.0191
1511.25,0.0190
1511.00,0.0190
1510.75,0.0190
1510.50,0.0191
1510.25,0.0191
1510.00,0.0192
1509.75,0.0192
1509.50,0.0191
1509.25,0.0190
1509.00,0.0190
1508.75,0.0191
1508.50,0.0194
1508.25,0.0196
1508.00,0.0197
1507.75,0.0196
1507.50,0.0194
1507.25,0.0194
1507.00,0.0197
1506.75,0.0200
1506.50,0.0200
1506.25,0.0200
1506.00,0.0198
1505.75,0.0194
1505.50,0.0189
1505.25,0.0186
1505.00,0.0186
1504.75,0.0187
1504.50,0.0186
1504.25,0.0186
1504.00,0.0184
1503.75,0.0183
1503.50,0.0183
1503.25,0.0184
1503.00,0.0186
1502.75,0.0187
1502.50,0.0188
1502.25,0.0189
1502.00,0.0189
1501.75,0.0190
1501.50,0.0191
1501.25,0.0190
1501.00,0.0190
1500.75,0.0188
1500.50,0.0187
1500.25,0.0187
1500.00,0.0187
1499.75,0.0188
1499.50,0.0189
1499.25,0.0191
1499.00,0.0191
1498.75,0.0189
1498.50,0.0186
1498.25,0.0184
1498.00,0.0183
1497.75,0.0183
1497.50,0.0184
1497.25,0.0184
1497.00,0.0183
1496.75,0.0183
1496.50,0.0184
1496.25,0.0187
1496.00,0.0191
1495.75,0.0193
1495.50,0.0193
1495.25,0.0191
1495.00,0.0188
1494.75,0.0186
1494.50,0.0184
1494.25,0.0184
1494.00,0.0184
1493.75,0.0186
1493.50,0.0188
1493.25,0.0189
1493.00,0.0191
1492.75,0.0192
1492.50,0.0193
1492.25,0.0194
1492.00,0.0193
1491.75,0.0192
1491.50,0.0190
1491.25,0.0189
1491.00,0.0189
1490.75,0.0189
1490.50,0.0190
1490.25,0.0191
1490.00,0.0191
1489.75,0.0190
1489.50,0.0189
1489.25,0.0188
1489.00,0.0189
1488.75,0.0190
1488.50,0.0191
1488.25,0.0191
1488.00,0.0191
1487.75,0.0189
1487.50,0.0187
1487.25,0.0186
1487.00,0.0188
1486.75,0.0191
1486.50,0.0193
1486.25,0.0194
1486.00,0.0193
1485.75,0.0192
1485.50,0.0191
1485.25,0.0190
1485.00,0.0190
1484.75,0.0189
1484.50,0.0188
1484.25,0.0188
1484.00,0.0188
1483.75,0.0188
1483.50,0.0189
1483.25,0.0189
1483.00,0.0189
1482.75,0.0188
1482.50,0.0187
1482.25,0.0186
1482.00,0.0185
1481.75,0.0184
1481.50,0.0185
1481.25,0.0186
1481.00,0.0187
1480.75,0.0188
1480.50,0.0188
1480.25,0.0189
1480.00,0.0189
1479.75,0.0189
1479.50,0.0189
1479.25,0.0188
1479.00,0.0187
1478.75,0.0187
1478.50,0.0187
1478.25,0.0188
1478.00,0.0189
1477.75,0.0190
1477.50,0.0191
1477.25,0.0191
1477.00,0.0192
1476.75,0.0192
1476.50,0.0192
1476.25,0.0191
1476.00,0.0190
1475.75,0.0189
1475.50,0.0188
1475.25,0.0188
1475.00,0.0187
1474.75,0.0187
1474.50,0.0187
1474.25,0.0189
1474.00,0.0191
1473.75,0.0194
1473.50,0.0196
1473.25,0.0194
1473.00,0.0192
1472.75,0.0191
1472.50,0.0191
1472.25,0.0192
1472.00,0.0194
1471.75,0.0192
1471.50,0.0189
1471.25,0.0187
1471.00,0.0186
1470.75,0.0187
1470.50,0.0189
1470.25,0.0190
1470.00,0.0190
1469.75,0.0189
1469.50,0.0188
1469.25,0.0187
1469.00,0.0187
1468.75,0.0188
1468.50,0.0189
1468.25,0.0190
1468.00,0.0192
1467.75,0.0192
1467.50,0.0192
1467.25,0.0192
1467.00,0.0192
1466.75,0.0192
1466.50,0.0193
1466.25,0.0193
1466.00,0.0192
1465.75,0.0191
1465.50,0.0190
1465.25,0.0190
1465.00,0.0192
1464.75,0.0194
1464.50,0.0195
1464.25,0.0195
1464.00,0.0195
1463.75,0.0195
1463.50,0.0196
1463.25,0.0196
1463.00,0.0196
1462.75,0.0195
1462.50,0.0194
1462.25,0.0194
1462.00,0.0194
1461.75,0.0196
1461.50,0.0197
1461.25,0.0197
1461.00,0.0197
1460.75,0.0197
1460.50,0.0198
1460.25,0.0198
1460.00,0.0198
1459.75,0.0198
1459.50,0.0197
1459.25,0.0197
1459.00,0.0198
1458.75,0.0201
1458.50,0.0203
1458.25,0.0205
1458.00,0.0205
1457.75,0.0205
1457.50,0.0204
1457.25,0.0206
1457.00,0.0209
1456.75,0.0211
1456.50,0.0209
1456.25,0.0206
1456.00,0.0204
1455.75,0.0204
1455.50,0.0204
1455.25,0.0205
1455.00,0.0206
1454.75,0.0207
1454.50,0.0207
1454.25,0.0208
1454.00,0.0208
1453.75,0.0208
1453.50,0.0208
1453.25,0.0207
1453.00,0.0207
1452.75,0.0208
1452.50,0.0210
1452.25,0.0212
1452.00,0.0213
1451.75,0.0213
1451.50,0.0212
1451.25,0.0211
1451.00,0.0210
1450.75,0.0211
1450.50,0.0213
1450.25,0.0215
1450.00,0.0216
1449.75,0.0216
1449.50,0.0215
1449.25,0.0215
1449.00,0.0215
1448.75,0.0216
1448.50,0.0217
1448.25,0.0219
1448.00,0.0220
1447.75,0.0219
1447.50,0.0218
1447.25,0.0218
1447.00,0.0217
1446.75,0.0218
1446.50,0.0218
1446.25,0.0219
1446.00,0.0220
1445.75,0.0220
1445.50,0.0219
1445.25,0.0219
1445.00,0.0219
1444.75,0.0219
1444.50,0.0219
1444.25,0.0219
1444.00,0.0218
1443.75,0.0217
1443.50,0.0217
1443.25,0.0217
1443.00,0.0217
1442.75,0.0216
1442.50,0.0216
1442.25,0.0216
1442.00,0.0218
1441.75,0.0219
1441.50,0.0219
1441.25,0.0219
1441.00,0.0218
1440.75,0.0217
1440.50,0.0216
1440.25,0.0216
1440.00,0.0215
1439.75,0.0214
1439.50,0.0213
1439.25,0.0213
1439.00,0.0213
1438.75,0.0212
1438.50,0.0212
1438.25,0.0212
1438.00,0.0212
1437.75,0.0212
1437.50,0.0214
1437.25,0.0216
1437.00,0.0218
1436.75,0.0218
1436.50,0.0215
1436.25,0.0212
1436.00,0.0209
1435.75,0.0207
1435.50,0.0207
1435.25,0.0207
1435.00,0.0208
1434.75,0.0208
1434.50,0.0207
1434.25,0.0206
1434.00,0.0205
1433.75,0.0204
1433.50,0.0204
1433.25,0.0205
1433.00,0.0206
1432.75,0.0207
1432.50,0.0209
1432.25,0.0210
1432.00,0.0210
1431.75,0.0210
1431.50,0.0209
1431.25,0.0208
1431.00,0.0208
1430.75,0.0208
1430.50,0.0208
1430.25,0.0208
1430.00,0.0208
1429.75,0.0208
1429.50,0.0208
1429.25,0.0208
1429.00,0.0208
1428.75,0.0209
1428.50,0.0211
1428.25,0.0213
1428.00,0.0215
1427.75,0.0215
1427.50,0.0214
1427.25,0.0212
1427.00,0.0210
1426.75,0.0209
1426.50,0.0210
1426.25,0.0211
1426.00,0.0213
1425.75,0.0214
1425.50,0.0215
1425.25,0.0214
1425.00,0.0214
1424.75,0.0214
1424.50,0.0215
1424.25,0.0217
1424.00,0.0220
1423.75,0.0223
1423.50,0.0225
1423.25,0.0226
1423.00,0.0228
1422.75,0.0229
1422.50,0.0231
1422.25,0.0232
1422.00,0.0233
1421.75,0.0234
1421.50,0.0235
1421.25,0.0236
1421.00,0.0237
1420.75,0.0238
1420.50,0.0239
1420.25,0.0240
1420.00,0.0242
1419.75,0.0245
1419.50,0.0248
1419.25,0.0250
1419.00,0.0250
1418.75,0.0251
1418.50,0.0252
1418.25,0.0253
1418.00,0.0255
1417.75,0.0256
1417.50,0.0258
1417.25,0.0260
1417.00,0.0261
1416.75,0.0263
1416.50,0.0264
1416.25,0.0265
1416.00,0.0266
1415.75,0.0268
1415.50,0.0269
1415.25,0.0270
1415.00,0.0272
1414.75,0.0274
1414.50,0.0275
1414.25,0.0277
1414.00,0.0279
1413.75,0.0280
1413.50,0.0281
1413.25,0.0281
1413.00,0.0281
1412.75,0.0281
1412.50,0.0281
1412.25,0.0282
1412.00,0.0282
1411.75,0.0283
1411.50,0.0283
1411.25,0.0283
1411.00,0.0282
1410.75,0.0281
1410.50,0.0281
1410.25,0.0281
1410.00,0.0282
1409.75,0.0282
1409.50,0.0281
1409.25,0.0281
1409.00,0.0280
1408.75,0.0280
1408.50,0.0280
1408.25,0.0279
1408.00,0.0279
1407.75,0.0278
1407.50,0.0277
1407.25,0.0277
1407.00,0.0276
1406.75,0.0275
1406.50,0.0274
1406.25,0.0273
1406.00,0.0272
1405.75,0.0272
1405.50,0.0271
1405.25,0.0270
1405.00,0.0268
1404.75,0.0266
1404.50,0.0265
1404.25,0.0266
1404.00,0.0266
1403.75,0.0267
1403.50,0.0266
1403.25,0.0266
1403.00,0.0265
1402.75,0.0265
1402.50,0.0266
1402.25,0.0266
1402.00,0.0266
1401.75,0.0265
1401.50,0.0263
1401.25,0.0262
1401.00,0.0262
1400.75,0.0262
1400.50,0.0262
1400.25,0.0263
1400.00,0.0263
1399.75,0.0263
1399.50,0.0262
1399.25,0.0260
1399.00,0.0258
1398.75,0.0257
1398.50,0.0256
1398.25,0.0256
1398.00,0.0255
1397.75,0.0254
1397.50,0.0253
1397.25,0.0251
1397.00,0.0249
1396.75,0.0247
1396.50,0.0245
1396.25,0.0243
1396.00,0.0241
1395.75,0.0240
1395.50,0.0240
1395.25,0.0241
1395.00,0.0241
1394.75,0.0240
1394.50,0.0238
1394.25,0.0234
1394.00,0.0231
1393.75,0.0229
1393.50,0.0228
1393.25,0.0228
1393.00,0.0227
1392.75,0.0227
1392.50,0.0226
1392.25,0.0225
1392.00,0.0224
1391.75,0.0222
1391.50,0.0221
1391.25,0.0221
1391.00,0.0220
1390.75,0.0220
1390.50,0.0219
1390.25,0.0217
1390.00,0.0215
1389.75,0.0214
1389.50,0.0213
1389.25,0.0212
1389.00,0.0211
1388.75,0.0210
1388.50,0.0210
1388.25,0.0209
1388.00,0.0209
1387.75,0.0209
1387.50,0.0209
1387.25,0.0209
1387.00,0.0209
1386.75,0.0210
1386.50,0.0209
1386.25,0.0208
1386.00,0.0206
1385.75,0.0203
1385.50,0.0202
1385.25,0.0201
1385.00,0.0202
1384.75,0.0201
1384.50,0.0201
1384.25,0.0201
1384.00,0.0201
1383.75,0.0201
1383.50,0.0201
1383.25,0.0201
1383.00,0.0201
1382.75,0.0200
1382.50,0.0199
1382.25,0.0199
1382.00,0.0198
1381.75,0.0198
1381.50,0.0198
1381.25,0.0199
1381.00,0.0199
1380.75,0.0200
1380.50,0.0200
1380.25,0.0199
1380.00,0.0198
1379.75,0.0196
1379.50,0.0195
1379.25,0.0194
1379.00,0.0193
1378.75,0.0193
1378.50,0.0194
1378.25,0.0194
1378.00,0.0195
1377.75,0.0195
1377.50,0.0195
1377.25,0.0195
1377.00,0.0195
1376.75,0.0194
1376.50,0.0194
1376.25,0.0194
1376.00,0.0193
1375.75,0.0192
1375.50,0.0191
1375.25,0.0190
1375.00,0.0190
1374.75,0.0191
1374.50,0.0193
1374.25,0.0194
1374.00,0.0194
1373.75,0.0193
1373.50,0.0192
1373.25,0.0192
1373.00,0.0193
1372.75,0.0193
1372.50,0.0193
1372.25,0.0193
1372.00,0.0192
1371.75,0.0192
1371.50,0.0192
1371.25,0.0192
1371.00,0.0191
1370.75,0.0190
1370.50,0.0190
1370.25,0.0191
1370.00,0.0192
1369.75,0.0192
1369.50,0.0193
1369.25,0.0192
1369.00,0.0192
1368.75,0.0191
1368.50,0.0191
1368.25,0.0191
1368.00,0.0189
1367.75,0.0188
1367.50,0.0187
1367.25,0.0186
1367.00,0.0187
1366.75,0.0188
1366.50,0.0189
1366.25,0.0190
1366.00,0.0191
1365.75,0.0191
1365.50,0.0190
1365.25,0.0188
1365.00,0.0186
1364.75,0.0186
1364.50,0.0187
1364.25,0.0188
1364.00,0.0189
1363.75,0.0189
1363.50,0.0188
1363.25,0.0188
1363.00,0.0189
1362.75,0.0190
1362.50,0.0190
1362.25,0.0190
1362.00,0.0189
1361.75,0.0188
1361.50,0.0186
1361.25,0.0185
1361.00,0.0184
1360.75,0.0184
1360.50,0.0185
1360.25,0.0186
1360.00,0.0187
1359.75,0.0187
1359.50,0.0187
1359.25,0.0187
1359.00,0.0187
1358.75,0.0186
1358.50,0.0186
1358.25,0.0185
1358.00,0.0184
1357.75,0.0184
1357.50,0.0184
1357.25,0.0184
1357.00,0.0185
1356.75,0.0185
1356.50,0.0185
1356.25,0.0185
1356.00,0.0185
1355.75,0.0185
1355.50,0.0185
1355.25,0.0185
1355.00,0.0184
1354.75,0.0183
1354.50,0.0182
1354.25,0.0182
1354.00,0.0182
1353.75,0.0181
1353.50,0.0181
1353.25,0.0180
1353.00,0.0180
1352.75,0.0181
1352.50,0.0182
1352.25,0.0183
1352.00,0.0184
1351.75,0.0184
1351.50,0.0183
1351.25,0.0182
1351.00,0.0182
1350.75,0.0182
1350.50,0.0182
1350.25,0.0182
1350.00,0.0181
1349.75,0.0181
1349.50,0.0181
1349.25,0.0180
1349.00,0.0181
1348.75,0.0181
1348.50,0.0182
1348.25,0.0183
1348.00,0.0184
1347.75,0.0186
1347.50,0.0187
1347.25,0.0188
1347.00,0.0187
1346.75,0.0186
1346.50,0.0185
1346.25,0.0183
1346.00,0.0182
1345.75,0.0182
1345.50,0.0182
1345.25,0.0182
1345.00,0.0183
1344.75,0.0182
1344.50,0.0181
1344.25,0.0181
1344.00,0.0181
1343.75,0.0182
1343.50,0.0183
1343.25,0.0183
1343.00,0.0183
1342.75,0.0182
1342.50,0.0181
1342.25,0.0180
1342.00,0.0180
1341.75,0.0181
1341.50,0.0182
1341.25,0.0183
1341.00,0.0184
1340.75,0.0184
1340.50,0.0185
1340.25,0.0184
1340.00,0.0183
1339.75,0.0182
1339.50,0.0182
1339.25,0.0183
1339.00,0.0183
1338.75,0.0183
1338.50,0.0182
1338.25,0.0181
1338.00,0.0180
1337.75,0.0180
1337.50,0.0179
1337.25,0.0180
1337.00,0.0180
1336.75,0.0181
1336.50,0.0182
1336.25,0.0183
1336.00,0.0182
1335.75,0.0181
1335.50,0.0181
1335.25,0.0181
1335.00,0.0181
1334.75,0.0181
1334.50,0.0181
1334.25,0.0182
1334.00,0.0182
1333.75,0.0182
1333.50,0.0182
1333.25,0.0181
1333.00,0.0180
1332.75,0.0179
1332.50,0.0178
1332.25,0.0178
1332.00,0.0179
1331.75,0.0179
1331.50,0.0179
1331.25,0.0179
1331.00,0.0179
1330.75,0.0179
1330.50,0.0180
1330.25,0.0180
1330.00,0.0181
1329.75,0.0181
1329.50,0.0181
1329.25,0.0181
1329.00,0.0181
1328.75,0.0180
1328.50,0.0179
1328.25,0.0178
1328.00,0.0177
1327.75,0.0177
1327.50,0.0177
1327.25,0.0177
1327.00,0.0177
1326.75,0.0177
1326.50,0.0177
1326.25,0.0177
1326.00,0.0178
1325.75,0.0178
1325.50,0.0179
1325.25,0.0180
1325.00,0.0181
1324.75,0.0182
1324.50,0.0182
1324.25,0.0182
1324.00,0.0181
1323.75,0.0180
1323.50,0.0180
1323.25,0.0180
1323.00,0.0180
1322.75,0.0181
1322.50,0.0181
1322.25,0.0181
1322.00,0.0181
1321.75,0.0181
1321.50,0.0181
1321.25,0.0181
1321.00,0.0181
1320.75,0.0182
1320.50,0.0183
1320.25,0.0183
1320.00,0.0182
1319.75,0.0181
1319.50,0.0179
1319.25,0.0179
1319.00,0.0180
1318.75,0.0181
1318.50,0.0183
1318.25,0.0184
1318.00,0.0185
1317.75,0.0185
1317.50,0.0184
1317.25,0.0183
1317.00,0.0183
1316.75,0.0183
1316.50,0.0184
1316.25,0.0184
1316.00,0.0185
1315.75,0.0185
1315.50,0.0185
1315.25,0.0185
1315.00,0.0184
1314.75,0.0183
1314.50,0.0182
1314.25,0.0181
1314.00,0.0181
1313.75,0.0182
1313.50,0.0184
1313.25,0.0185
1313.00,0.0185
1312.75,0.0186
1312.50,0.0186
1312.25,0.0186
1312.00,0.0186
1311.75,0.0186
1311.50,0.0186
1311.25,0.0186
1311.00,0.0185
1310.75,0.0185
1310.50,0.0185
1310.25,0.0185
1310.00,0.0186
1309.75,0.0186
1309.50,0.0187
1309.25,0.0187
1309.00,0.0187
1308.75,0.0186
1308.50,0.0185
1308.25,0.0185
1308.00,0.0186
1307.75,0.0187
1307.50,0.0188
1307.25,0.0188
1307.00,0.0188
1306.75,0.0188
1306.50,0.0187
1306.25,0.0187
1306.00,0.0186
1305.75,0.0187
1305.50,0.0187
1305.25,0.0187
1305.00,0.0188
1304.75,0.0189
1304.50,0.0189
1304.25,0.0189
1304.00,0.0189
1303.75,0.0189
1303.50,0.0190
1303.25,0.0190
1303.00,0.0191
1302.75,0.0190
1302.50,0.0189
1302.25,0.0188
1302.00,0.0187
1301.75,0.0188
1301.50,0.0189
1301.25,0.0191
1301.00,0.0192
1300.75,0.0193
1300.50,0.0192
1300.25,0.0191
1300.00,0.0190
1299.75,0.0189
1299.50,0.0188
1299.25,0.0188
1299.00,0.0189
1298.75,0.0191
1298.50,0.0192
1298.25,0.0193
1298.00,0.0193
1297.75,0.0193
1297.50,0.0193
1297.25,0.0192
1297.00,0.0192
1296.75,0.0192
1296.50,0.0192
1296.25,0.0193
1296.00,0.0194
1295.75,0.0194
1295.50,0.0195
1295.25,0.0196
1295.00,0.0197
1294.75,0.0198
1294.50,0.0200
1294.25,0.0201
1294.00,0.0202
1293.75,0.0202
1293.50,0.0201
1293.25,0.0200
1293.00,0.0199
1292.75,0.0199
1292.50,0.0199
1292.25,0.0200
1292.00,0.0201
1291.75,0.0201
1291.50,0.0201
1291.25,0.0202
1291.00,0.0202
1290.75,0.0203
1290.50,0.0205
1290.25,0.0206
1290.00,0.0207
1289.75,0.0207
1289.50,0.0206
1289.25,0.0206
1289.00,0.0207
1288.75,0.0208
1288.50,0.0209
1288.25,0.0209
1288.00,0.0209
1287.75,0.0208
1287.50,0.0209
1287.25,0.0210
1287.00,0.0211
1286.75,0.0212
1286.50,0.0212
1286.25,0.0212
1286.00,0.0213
1285.75,0.0214
1285.50,0.0215
1285.25,0.0215
1285.00,0.0215
1284.75,0.0215
1284.50,0.0216
1284.25,0.0217
1284.00,0.0218
1283.75,0.0219
1283.50,0.0220
1283.25,0.0221
1283.00,0.0222
1282.75,0.0224
1282.50,0.0225
1282.25,0.0227
1282.00,0.0229
1281.75,0.0230
1281.50,0.0231
1281.25,0.0231
1281.00,0.0232
1280.75,0.0233
1280.50,0.0235
1280.25,0.0236
1280.00,0.0236
1279.75,0.0238
1279.50,0.0239
1279.25,0.0242
1279.00,0.0245
1278.75,0.0247
1278.50,0.0249
1278.25,0.0251
1278.00,0.0252
1277.75,0.0254
1277.50,0.0255
1277.25,0.0257
1277.00,0.0259
1276.75,0.0262
1276.50,0.0265
1276.25,0.0269
1276.00,0.0272
1275.75,0.0276
1275.50,0.0279
1275.25,0.0283
1275.00,0.0286
1274.75,0.0288
1274.50,0.0291
1274.25,0.0295
1274.00,0.0299
1273.75,0.0304
1273.50,0.0309
1273.25,0.0317
1273.00,0.0324
1272.75,0.0332
1272.50,0.0340
1272.25,0.0347
1272.00,0.0355
1271.75,0.0364
1271.50,0.0374
1271.25,0.0384
1271.00,0.0394
1270.75,0.0404
1270.50,0.0415
1270.25,0.0428
1270.00,0.0442
1269.75,0.0457
1269.50,0.0473
1269.25,0.0491
1269.00,0.0509
1268.75,0.0530
1268.50,0.0552
1268.25,0.0575
1268.00,0.0601
1267.75,0.0628
1267.50,0.0657
1267.25,0.0687
1267.00,0.0720
1266.75,0.0755
1266.50,0.0792
1266.25,0.0830
1266.00,0.0870
1265.75,0.0911
1265.50,0.0954
1265.25,0.0998
1265.00,0.1044
1264.75,0.1091
1264.50,0.1139
1264.25,0.1188
1264.00,0.1238
1263.75,0.1290
1263.50,0.1341
1263.25,0.1392
1263.00,0.1442
1262.75,0.1492
1262.50,0.1541
1262.25,0.1590
1262.00,0.1637
1261.75,0.1681
1261.50,0.1721
1261.25,0.1758
1261.00,0.1792
1260.75,0.1824
1260.50,0.1856
1260.25,0.1885
1260.00,0.1911
1259.75,0.1933
1259.50,0.1950
1259.25,0.1964
1259.00,0.1975
1258.75,0.1982
1258.50,0.1985
1258.25,0.1986
1258.00,0.1983
1257.75,0.1976
1257.50,0.1965
1257.25,0.1950
1257.00,0.1932
1256.75,0.1913
1256.50,0.1894
1256.25,0.1874
1256.00,0.1853
1255.75,0.1830
1255.50,0.1805
1255.25,0.1776
1255.00,0.1747
1254.75,0.1718
1254.50,0.1690
1254.25,0.1662
1254.00,0.1635
1253.75,0.1608
1253.50,0.1579
1253.25,0.1548
1253.00,0.1517
1252.75,0.1484
1252.50,0.1449
1252.25,0.1413
1252.00,0.1376
1251.75,0.1338
1251.50,0.1299
1251.25,0.1259
1251.00,0.1218
1250.75,0.1177
1250.50,0.1135
1250.25,0.1092
1250.00,0.1051
1249.75,0.1010
1249.50,0.0972
1249.25,0.0935
1249.00,0.0900
1248.75,0.0866
1248.50,0.0832
1248.25,0.0800
1248.00,0.0769
1247.75,0.0740
1247.50,0.0714
1247.25,0.0689
1247.00,0.0666
1246.75,0.0645
1246.50,0.0625
1246.25,0.0607
1246.00,0.0591
1245.75,0.0575
1245.50,0.0560
1245.25,0.0545
1245.00,0.0531
1244.75,0.0518
1244.50,0.0507
1244.25,0.0495
1244.00,0.0485
1243.75,0.0474
1243.50,0.0464
1243.25,0.0455
1243.00,0.0446
1242.75,0.0438
1242.50,0.0431
1242.25,0.0425
1242.00,0.0419
1241.75,0.0413
1241.50,0.0406
1241.25,0.0399
1241.00,0.0392
1240.75,0.0387
1240.50,0.0383
1240.25,0.0380
1240.00,0.0378
1239.75,0.0375
1239.50,0.0372
1239.25,0.0369
1239.00,0.0365
1238.75,0.0361
1238.50,0.0358
1238.25,0.0354
1238.00,0.0350
1237.75,0.0347
1237.50,0.0344
1237.25,0.0341
1237.00,0.0338
1236.75,0.0336
1236.50,0.0333
1236.25,0.0331
1236.00,0.0329
1235.75,0.0328
1235.50,0.0328
1235.25,0.0327
1235.00,0.0326
1234.75,0.0325
1234.50,0.0323
1234.25,0.0321
1234.00,0.0319
1233.75,0.0317
1233.50,0.0316
1233.25,0.0315
1233.00,0.0314
1232.75,0.0313
1232.50,0.0311
1232.25,0.0310
1232.00,0.0308
1231.75,0.0307
1231.50,0.0307
1231.25,0.0307
1231.00,0.0307
1230.75,0.0307
1230.50,0.0306
1230.25,0.0306
1230.00,0.0306
1229.75,0.0305
1229.50,0.0305
1229.25,0.0304
1229.00,0.0303
1228.75,0.0301
1228.50,0.0301
1228.25,0.0301
1228.00,0.0302
1227.75,0.0302
1227.50,0.0303
1227.25,0.0304
1227.00,0.0305
1226.75,0.0306
1226.50,0.0307
1226.25,0.0307
1226.00,0.0306
1225.75,0.0305
1225.50,0.0304
1225.25,0.0303
1225.00,0.0302
1224.75,0.0301
1224.50,0.0302
1224.25,0.0303
1224.00,0.0305
1223.75,0.0306
1223.50,0.0307
1223.25,0.0307
1223.00,0.0308
1222.75,0.0308
1222.50,0.0309
1222.25,0.0311
1222.00,0.0312
1221.75,0.0314
1221.50,0.0315
1221.25,0.0314
1221.00,0.0314
1220.75,0.0314
1220.50,0.0314
1220.25,0.0315
1220.00,0.0316
1219.75,0.0317
1219.50,0.0317
1219.25,0.0318
1219.00,0.0319
1218.75,0.0320
1218.50,0.0323
1218.25,0.0324
1218.00,0.0326
1217.75,0.0326
1217.50,0.0326
1217.25,0.0327
1217.00,0.0328
1216.75,0.0328
1216.50,0.0329
1216.25,0.0331
1216.00,0.0333
1215.75,0.0335
1215.50,0.0337
1215.25,0.0338
1215.00,0.0339
1214.75,0.0340
1214.50,0.0342
1214.25,0.0344
1214.00,0.0346
1213.75,0.0347
1213.50,0.0346
1213.25,0.0346
1213.00,0.0346
1212.75,0.0347
1212.50,0.0348
1212.25,0.0350
1212.00,0.0352
1211.75,0.0354
1211.50,0.0355
1211.25,0.0357
1211.00,0.0358
1210.75,0.0360
1210.50,0.0361
1210.25,0.0363
1210.00,0.0365
1209.75,0.0367
1209.50,0.0370
1209.25,0.0372
1209.00,0.0373
1208.75,0.0374
1208.50,0.0375
1208.25,0.0375
1208.00,0.0377
1207.75,0.0378
1207.50,0.0380
1207.25,0.0382
1207.00,0.0382
1206.75,0.0381
1206.50,0.0380
1206.25,0.0381
1206.00,0.0382
1205.75,0.0386
1205.50,0.0389
1205.25,0.0393
1205.00,0.0395
1204.75,0.0396
1204.50,0.0397
1204.25,0.0398
1204.00,0.0399
1203.75,0.0400
1203.50,0.0400
1203.25,0.0399
1203.00,0.0399
1202.75,0.0399
1202.50,0.0401
1202.25,0.0403
1202.00,0.0405
1201.75,0.0407
1201.50,0.0409
1201.25,0.0411
1201.00,0.0414
1200.75,0.0417
1200.50,0.0418
1200.25,0.0419
1200.00,0.0419
1199.75,0.0420
1199.50,0.0420
1199.25,0.0421
1199.00,0.0422
1198.75,0.0422
1198.50,0.0423
1198.25,0.0424
1198.00,0.0425
1197.75,0.0426
1197.50,0.0427
1197.25,0.0428
1197.00,0.0429
1196.75,0.0430
1196.50,0.0430
1196.25,0.0431
1196.00,0.0431
1195.75,0.0432
1195.50,0.0433
1195.25,0.0435
1195.00,0.0437
1194.75,0.0438
1194.50,0.0439
1194.25,0.0439
1194.00,0.0438
1193.75,0.0438
1193.50,0.0439
1193.25,0.0440
1193.00,0.0441
1192.75,0.0441
1192.50,0.0440
1192.25,0.0439
1192.00,0.0440
1191.75,0.0441
1191.50,0.0442
1191.25,0.0443
1191.00,0.0444
1190.75,0.0445
1190.50,0.0446
1190.25,0.0446
1190.00,0.0447
1189.75,0.0447
1189.50,0.0446
1189.25,0.0446
1189.00,0.0445
1188.75,0.0445
1188.50,0.0445
1188.25,0.0447
1188.00,0.0449
1187.75,0.0452
1187.50,0.0454
1187.25,0.0455
1187.00,0.0454
1186.75,0.0454
1186.50,0.0453
1186.25,0.0452
1186.00,0.0452
1185.75,0.0452
1185.50,0.0454
1185.25,0.0455
1185.00,0.0456
1184.75,0.0457
1184.50,0.0457
1184.25,0.0457
1184.00,0.0457
1183.75,0.0458
1183.50,0.0458
1183.25,0.0458
1183.00,0.0457
1182.75,0.0455
1182.50,0.0453
1182.25,0.0453
1182.00,0.0453
1181.75,0.0456
1181.50,0.0458
1181.25,0.0459
1181.00,0.0459
1180.75,0.0457
1180.50,0.0456
1180.25,0.0455
1180.00,0.0454
1179.75,0.0454
1179.50,0.0453
1179.25,0.0453
1179.00,0.0453
1178.75,0.0454
1178.50,0.0455
1178.25,0.0456
1178.00,0.0457
1177.75,0.0456
1177.50,0.0456
1177.25,0.0455
1177.00,0.0455
1176.75,0.0456
1176.50,0.0458
1176.25,0.0460
1176.00,0.0460
1175.75,0.0461
1175.50,0.0460
1175.25,0.0461
1175.00,0.0462
1174.75,0.0464
1174.50,0.0465
1174.25,0.0464
1174.00,0.0462
1173.75,0.0460
1173.50,0.0459
1173.25,0.0459
1173.00,0.0460
1172.75,0.0462
1172.50,0.0464
1172.25,0.0466
1172.00,0.0466
1171.75,0.0466
1171.50,0.0465
1171.25,0.0464
1171.00,0.0463
1170.75,0.0462
1170.50,0.0463
1170.25,0.0464
1170.00,0.0466
1169.75,0.0468
1169.50,0.0468
1169.25,0.0467
1169.00,0.0466
1168.75,0.0464
1168.50,0.0463
1168.25,0.0463
1168.00,0.0462
1167.75,0.0462
1167.50,0.0461
1167.25,0.0461
1167.00,0.0461
1166.75,0.0461
1166.50,0.0461
1166.25,0.0463
1166.00,0.0464
1165.75,0.0466
1165.50,0.0467
1165.25,0.0467
1165.00,0.0466
1164.75,0.0465
1164.50,0.0464
1164.25,0.0463
1164.00,0.0464
1163.75,0.0466
1163.50,0.0467
1163.25,0.0467
1163.00,0.0466
1162.75,0.0466
1162.50,0.0467
1162.25,0.0469
1162.00,0.0470
1161.75,0.0470
1161.50,0.0469
1161.25,0.0468
1161.00,0.0467
1160.75,0.0467
1160.50,0.0468
1160.25,0.0469
1160.00,0.0470
1159.75,0.0469
1159.50,0.0469
1159.25,0.0468
1159.00,0.0468
1158.75,0.0469
1158.50,0.0469
1158.25,0.0469
1158.00,0.0470
1157.75,0.0472
1157.50,0.0474
1157.25,0.0476
1157.00,0.0478
1156.75,0.0478
1156.50,0.0477
1156.25,0.0474
1156.00,0.0472
1155.75,0.0472
1155.50,0.0473
1155.25,0.0475
1155.00,0.0477
1154.75,0.0479
1154.50,0.0480
1154.25,0.0479
1154.00,0.0480
1153.75,0.0480
1153.50,0.0481
1153.25,0.0482
1153.00,0.0482
1152.75,0.0482
1152.50,0.0482
1152.25,0.0483
1152.00,0.0483
1151.75,0.0483
1151.50,0.0482
1151.25,0.0483
1151.00,0.0484
1150.75,0.0486
1150.50,0.0488
1150.25,0.0488
1150.00,0.0489
1149.75,0.0490
1149.50,0.0491
1149.25,0.0492
1149.00,0.0493
1148.75,0.0494
1148.50,0.0495
1148.25,0.0495
1148.00,0.0495
1147.75,0.0495
1147.50,0.0496
1147.25,0.0497
1147.00,0.0498
1146.75,0.0499
1146.50,0.0499
1146.25,0.0499
1146.00,0.0500
1145.75,0.0502
1145.50,0.0504
1145.25,0.0506
1145.00,0.0508
1144.75,0.0509
1144.50,0.0511
1144.25,0.0513
1144.00,0.0515
1143.75,0.0517
1143.50,0.0518
1143.25,0.0518
1143.00,0.0517
1142.75,0.0518
1142.50,0.0519
1142.25,0.0521
1142.00,0.0523
1141.75,0.0526
1141.50,0.0529
1141.25,0.0532
1141.00,0.0535
1140.75,0.0538
1140.50,0.0540
1140.25,0.0540
1140.00,0.0541
1139.75,0.0541
1139.50,0.0541
1139.25,0.0541
1139.00,0.0542
1138.75,0.0544
1138.50,0.0548
1138.25,0.0552
1138.00,0.0556
1137.75,0.0558
1137.50,0.0560
1137.25,0.0561
1137.00,0.0563
1136.75,0.0566
1136.50,0.0569
1136.25,0.0572
1136.00,0.0576
1135.75,0.0578
1135.50,0.0581
1135.25,0.0584
1135.00,0.0588
1134.75,0.0592
1134.50,0.0595
1134.25,0.0597
1134.00,0.0597
1133.75,0.0598
1133.50,0.0598
1133.25,0.0600
1133.00,0.0603
1132.75,0.0606
1132.50,0.0609
1132.25,0.0611
1132.00,0.0613
1131.75,0.0615
1131.50,0.0618
1131.25,0.0621
1131.00,0.0625
1130.75,0.0628
1130.50,0.0632
1130.25,0.0636
1130.00,0.0640
1129.75,0.0644
1129.50,0.0649
1129.25,0.0653
1129.00,0.0657
1128.75,0.0661
1128.50,0.0665
1128.25,0.0668
1128.00,0.0672
1127.75,0.0676
1127.50,0.0680
1127.25,0.0683
1127.00,0.0686
1126.75,0.0690
1126.50,0.0694
1126.25,0.0699
1126.00,0.0703
1125.75,0.0708
1125.50,0.0714
1125.25,0.0720
1125.00,0.0726
1124.75,0.0732
1124.50,0.0737
1124.25,0.0741
1124.00,0.0745
1123.75,0.0750
1123.50,0.0757
1123.25,0.0764
1123.00,0.0770
1122.75,0.0775
1122.50,0.0779
1122.25,0.0782
1122.00,0.0787
1121.75,0.0791
1121.50,0.0797
1121.25,0.0803
1121.00,0.0811
1120.75,0.0820
1120.50,0.0830
1120.25,0.0840
1120.00,0.0848
1119.75,0.0856
1119.50,0.0864
1119.25,0.0871
1119.00,0.0878
1118.75,0.0885
1118.50,0.0892
1118.25,0.0901
1118.00,0.0910
1117.75,0.0920
1117.50,0.0930
1117.25,0.0939
1117.00,0.0948
1116.75,0.0957
1116.50,0.0966
1116.25,0.0975
1116.00,0.0983
1115.75,0.0993
1115.50,0.1003
1115.25,0.1014
1115.00,0.1025
1114.75,0.1035
1114.50,0.1044
1114.25,0.1051
1114.00,0.1057
1113.75,0.1064
1113.50,0.1073
1113.25,0.1083
1113.00,0.1096
1112.75,0.1108
1112.50,0.1121
1112.25,0.1133
1112.00,0.1145
1111.75,0.1157
1111.50,0.1167
1111.25,0.1178
1111.00,0.1188
1110.75,0.1198
1110.50,0.1210
1110.25,0.1222
1110.00,0.1237
1109.75,0.1252
1109.50,0.1266
1109.25,0.1279
1109.00,0.1290
1108.75,0.1300
1108.50,0.1310
1108.25,0.1323
1108.00,0.1337
1107.75,0.1351
1107.50,0.1366
1107.25,0.1379
1107.00,0.1393
1106.75,0.1407
1106.50,0.1421
1106.25,0.1436
1106.00,0.1451
1105.75,0.1465
1105.50,0.1477
1105.25,0.1488
1105.00,0.1499
1104.75,0.1512
1104.50,0.1527
1104.25,0.1544
1104.00,0.1561
1103.75,0.1577
1103.50,0.1590
1103.25,0.1603
1103.00,0.1616
1102.75,0.1630
1102.50,0.1645
1102.25,0.1661
1102.00,0.1677
1101.75,0.1694
1101.50,0.1712
1101.25,0.1731
1101.00,0.1749
1100.75,0.1765
1100.50,0.1779
1100.25,0.1792
1100.00,0.1807
1099.75,0.1823
1099.50,0.1841
1099.25,0.1859
1099.00,0.1876
1098.75,0.1893
1098.50,0.1912
1098.25,0.1931
1098.00,0.1949
1097.75,0.1964
1097.50,0.1976
1097.25,0.1987
1097.00,0.2000
1096.75,0.2014
1096.50,0.2031
1096.25,0.2050
1096.00,0.2069
1095.75,0.2090
1095.50,0.2110
1095.25,0.2127
1095.00,0.2142
1094.75,0.2155
1094.50,0.2169
1094.25,0.2185
1094.00,0.2204
1093.75,0.2224
1093.50,0.2244
1093.25,0.2263
1093.00,0.2280
1092.75,0.2295
1092.50,0.2310
1092.25,0.2324
1092.00,0.2337
1091.75,0.2350
1091.50,0.2364
1091.25,0.2379
1091.00,0.2394
1090.75,0.2410
1090.50,0.2426
1090.25,0.2441
1090.00,0.2455
1089.75,0.2468
1089.50,0.2482
1089.25,0.2498
1089.00,0.2517
1088.75,0.2538
1088.50,0.2561
1088.25,0.2581
1088.00,0.2599
1087.75,0.2612
1087.50,0.2622
1087.25,0.2631
1087.00,0.2640
1086.75,0.2651
1086.50,0.2663
1086.25,0.2676
1086.00,0.2687
1085.75,0.2699
1085.50,0.2711
1085.25,0.2726
1085.00,0.2742
1084.75,0.2760
1084.50,0.2777
1084.25,0.2794
1084.00,0.2810
1083.75,0.2822
1083.50,0.2831
1083.25,0.2837
1083.00,0.2844
1082.75,0.2853
1082.50,0.2865
1082.25,0.2880
1082.00,0.2894
1081.75,0.2908
1081.50,0.2919
1081.25,0.2927
1081.00,0.2933
1080.75,0.2939
1080.50,0.2947
1080.25,0.2956
1080.00,0.2966
1079.75,0.2975
1079.50,0.2983
1079.25,0.2992
1079.00,0.3001
1078.75,0.3010
1078.50,0.3020
1078.25,0.3028
1078.00,0.3036
1077.75,0.3042
1077.50,0.3047
1077.25,0.3052
1077.00,0.3057
1076.75,0.3062
1076.50,0.3068
1076.25,0.3076
1076.00,0.3084
1075.75,0.3093
1075.50,0.3101
1075.25,0.3109
1075.00,0.3116
1074.75,0.3122
1074.50,0.3128
1074.25,0.3132
1074.00,0.3135
1073.75,0.3137
1073.50,0.3140
1073.25,0.3144
1073.00,0.3150
1072.75,0.3157
1072.50,0.3164
1072.25,0.3169
1072.00,0.3173
1071.75,0.3174
1071.50,0.3176
1071.25,0.3179
1071.00,0.3184
1070.75,0.3191
1070.50,0.3196
1070.25,0.3200
1070.00,0.3200
1069.75,0.3199
1069.50,0.3199
1069.25,0.3201
1069.00,0.3205
1068.75,0.3211
1068.50,0.3216
1068.25,0.3219
1068.00,0.3221
1067.75,0.3223
1067.50,0.3227
1067.25,0.3233
1067.00,0.3238
1066.75,0.3240
1066.50,0.3240
1066.25,0.3238
1066.00,0.3236
1065.75,0.3236
1065.50,0.3239
1065.25,0.3244
1065.00,0.3250
1064.75,0.3254
1064.50,0.3256
1064.25,0.3256
1064.00,0.3255
1063.75,0.3256
1063.50,0.3256
1063.25,0.3256
1063.00,0.3255
1062.75,0.3254
1062.50,0.3253
1062.25,0.3254
1062.00,0.3255
1061.75,0.3256
1061.50,0.3257
1061.25,0.3257
1061.00,0.3258
1060.75,0.3258
1060.50,0.3256
1060.25,0.3255
1060.00,0.3254
1059.75,0.3255
1059.50,0.3256
1059.25,0.3257
1059.00,0.3259
1058.75,0.3260
1058.50,0.3260
1058.25,0.3260
1058.00,0.3259
1057.75,0.3256
1057.50,0.3253
1057.25,0.3250
1057.00,0.3247
1056.75,0.3245
1056.50,0.3243
1056.25,0.3241
1056.00,0.3242
1055.75,0.3243
1055.50,0.3244
1055.25,0.3244
1055.00,0.3243
1054.75,0.3239
1054.50,0.3233
1054.25,0.3226
1054.00,0.3220
1053.75,0.3215
1053.50,0.3212
1053.25,0.3211
1053.00,0.3209
1052.75,0.3206
1052.50,0.3203
1052.25,0.3200
1052.00,0.3199
1051.75,0.3198
1051.50,0.3197
1051.25,0.3195
1051.00,0.3192
1050.75,0.3188
1050.50,0.3186
1050.25,0.3184
1050.00,0.3183
1049.75,0.3182
1049.50,0.3180
1049.25,0.3177
1049.00,0.3173
1048.75,0.3168
1048.50,0.3162
1048.25,0.3156
1048.00,0.3150
1047.75,0.3143
1047.50,0.3138
1047.25,0.3134
1047.00,0.3132
1046.75,0.3132
1046.50,0.3133
1046.25,0.3134
1046.00,0.3133
1045.75,0.3130
1045.50,0.3127
1045.25,0.3123
1045.00,0.3119
1044.75,0.3115
1044.50,0.3111
1044.25,0.3108
1044.00,0.3106
1043.75,0.3106
1043.50,0.3109
1043.25,0.3111
1043.00,0.3111
1042.75,0.3109
1042.50,0.3106
1042.25,0.3104
1042.00,0.3102
1041.75,0.3099
1041.50,0.3095
1041.25,0.3092
1041.00,0.3092
1040.75,0.3096
1040.50,0.3102
1040.25,0.3108
1040.00,0.3113
1039.75,0.3116
1039.50,0.3118
1039.25,0.3118
1039.00,0.3118
1038.75,0.3116
1038.50,0.3114
1038.25,0.3112
1038.00,0.3112
1037.75,0.3114
1037.50,0.3117
1037.25,0.3121
1037.00,0.3124
1036.75,0.3127
1036.50,0.3129
1036.25,0.3129
1036.00,0.3130
1035.75,0.3133
1035.50,0.3139
1035.25,0.3148
1035.00,0.3157
1034.75,0.3165
1034.50,0.3172
1034.25,0.3178
1034.00,0.3184
1033.75,0.3190
1033.50,0.3196
1033.25,0.3202
1033.00,0.3206
1032.75,0.3209
1032.50,0.3212
1032.25,0.3217
1032.00,0.3224
1031.75,0.3233
1031.50,0.3243
1031.25,0.3253
1031.00,0.3260
1030.75,0.3266
1030.50,0.3270
1030.25,0.3276
1030.00,0.3283
1029.75,0.3294
1029.50,0.3306
1029.25,0.3318
1029.00,0.3330
1028.75,0.3341
1028.50,0.3351
1028.25,0.3363
1028.00,0.3376
1027.75,0.3392
1027.50,0.3407
1027.25,0.3419
1027.00,0.3428
1026.75,0.3437
1026.50,0.3447
1026.25,0.3461
1026.00,0.3476
1025.75,0.3490
1025.50,0.3502
1025.25,0.3513
1025.00,0.3526
1024.75,0.3542
1024.50,0.3561
1024.25,0.3579
1024.00,0.3595
1023.75,0.3609
1023.50,0.3624
1023.25,0.3641
1023.00,0.3662
1022.75,0.3684
1022.50,0.3704
1022.25,0.3720
1022.00,0.3733
1021.75,0.3748
1021.50,0.3765
1021.25,0.3786
1021.00,0.3809
1020.75,0.3831
1020.50,0.3853
1020.25,0.3873
1020.00,0.3891
1019.75,0.3907
1019.50,0.3923
1019.25,0.3940
1019.00,0.3961
1018.75,0.3986
1018.50,0.4014
1018.25,0.4038
1018.00,0.4058
1017.75,0.4074
1017.50,0.4091
1017.25,0.4112
1017.00,0.4136
1016.75,0.4162
1016.50,0.4185
1016.25,0.4205
1016.00,0.4223
1015.75,0.4242
1015.50,0.4260
1015.25,0.4275
1015.00,0.4288
1014.75,0.4299
1014.50,0.4310
1014.25,0.4322
1014.00,0.4336
1013.75,0.4349
1013.50,0.4362
1013.25,0.4373
1013.00,0.4383
1012.75,0.4391
1012.50,0.4394
1012.25,0.4393
1012.00,0.4388
1011.75,0.4381
1011.50,0.4377
1011.25,0.4374
1011.00,0.4371
1010.75,0.4364
1010.50,0.4351
1010.25,0.4333
1010.00,0.4314
1009.75,0.4293
1009.50,0.4273
1009.25,0.4254
1009.00,0.4235
1008.75,0.4214
1008.50,0.4187
1008.25,0.4151
1008.00,0.4108
1007.75,0.4063
1007.50,0.4021
1007.25,0.3983
1007.00,0.3946
1006.75,0.3905
1006.50,0.3858
1006.25,0.3807
1006.00,0.3758
1005.75,0.3710
1005.50,0.3663
1005.25,0.3615
1005.00,0.3565
1004.75,0.3512
1004.50,0.3458
1004.25,0.3405
1004.00,0.3351
1003.75,0.3296
1003.50,0.3241
1003.25,0.3185
1003.00,0.3130
1002.75,0.3078
1002.50,0.3027
1002.25,0.2977
1002.00,0.2925
1001.75,0.2872
1001.50,0.2816
1001.25,0.2762
1001.00,0.2710
1000.75,0.2661
1000.50,0.2614
1000.25,0.2567
1000.00,0.2518
999.75,0.2469
999.50,0.2421
999.25,0.2377
999.00,0.2335
998.75,0.2294
998.50,0.2253
998.25,0.2210
998.00,0.2167
997.75,0.2126
997.50,0.2086
997.25,0.2047
997.00,0.2009
996.75,0.1972
996.50,0.1936
996.25,0.1902
996.00,0.1869
995.75,0.1838
995.50,0.1808
995.25,0.1777
995.00,0.1747
994.75,0.1717
994.50,0.1687
994.25,0.1659
994.00,0.1631
993.75,0.1602
993.50,0.1574
993.25,0.1546
993.00,0.1520
992.75,0.1496
992.50,0.1474
992.25,0.1451
992.00,0.1428
991.75,0.1405
991.50,0.1384
991.25,0.1365
991.00,0.1347
990.75,0.1330
990.50,0.1314
990.25,0.1296
990.00,0.1278
989.75,0.1260
989.50,0.1242
989.25,0.1225
989.00,0.1207
988.75,0.1190
988.50,0.1174
988.25,0.1159
988.00,0.1144
987.75,0.1129
987.50,0.1114
987.25,0.1100
987.00,0.1087
986.75,0.1075
986.50,0.1063
986.25,0.1050
986.00,0.1036
985.75,0.1022
985.50,0.1008
985.25,0.0996
985.00,0.0986
984.75,0.0977
984.50,0.0969
984.25,0.0960
984.00,0.0951
983.75,0.0942
983.50,0.0931
983.25,0.0921
983.00,0.0911
982.75,0.0901
982.50,0.0892
982.25,0.0884
982.00,0.0876
981.75,0.0867
981.50,0.0858
981.25,0.0850
981.00,0.0842
980.75,0.0836
980.50,0.0830
980.25,0.0824
980.00,0.0815
979.75,0.0805
979.50,0.0794
979.25,0.0783
979.00,0.0773
978.75,0.0765
978.50,0.0758
978.25,0.0752
978.00,0.0746
977.75,0.0741
977.50,0.0736
977.25,0.0733
977.00,0.0731
976.75,0.0729
976.50,0.0726
976.25,0.0722
976.00,0.0716
975.75,0.0709
975.50,0.0703
975.25,0.0696
975.00,0.0690
974.75,0.0684
974.50,0.0678
974.25,0.0673
974.00,0.0668
973.75,0.0664
973.50,0.0661
973.25,0.0658
973.00,0.0654
972.75,0.0651
972.50,0.0648
972.25,0.0645
972.00,0.0643
971.75,0.0639
971.50,0.0634
971.25,0.0628
971.00,0.0622
970.75,0.0617
970.50,0.0614
970.25,0.0612
970.00,0.0610
969.75,0.0607
969.50,0.0602
969.25,0.0596
969.00,0.0591
968.75,0.0586
968.50,0.0581
968.25,0.0577
968.00,0.0575
967.75,0.0573
967.50,0.0574
967.25,0.0574
967.00,0.0574
966.75,0.0573
966.50,0.0571
966.25,0.0570
966.00,0.0569
965.75,0.0567
965.50,0.0564
965.25,0.0559
965.00,0.0554
964.75,0.0548
964.50,0.0543
964.25,0.0540
964.00,0.0538
963.75,0.0537
963.50,0.0536
963.25,0.0537
963.00,0.0537
962.75,0.0537
962.50,0.0535
962.25,0.0532
962.00,0.0529
961.75,0.0527
961.50,0.0526
961.25,0.0527
961.00,0.0528
960.75,0.0527
960.50,0.0526
960.25,0.0523
960.00,0.0520
959.75,0.0518
959.50,0.0516
959.25,0.0515
959.00,0.0514
958.75,0.0513
958.50,0.0511
958.25,0.0509
958.00,0.0508
957.75,0.0508
957.50,0.0508
957.25,0.0508
957.00,0.0506
956.75,0.0503
956.50,0.0500
956.25,0.0496
956.00,0.0494
955.75,0.0492
955.50,0.0491
955.25,0.0489
955.00,0.0487
954.75,0.0483
954.50,0.0479
954.25,0.0478
954.00,0.0478
953.75,0.0480
953.50,0.0481
953.25,0.0481
953.00,0.0481
952.75,0.0479
952.50,0.0477
952.25,0.0474
952.00,0.0471
951.75,0.0469
951.50,0.0468
951.25,0.0466
951.00,0.0462
950.75,0.0458
950.50,0.0453
950.25,0.0449
950.00,0.0446
949.75,0.0444
949.50,0.0442
949.25,0.0442
949.00,0.0441
948.75,0.0440
948.50,0.0439
948.25,0.0437
948.00,0.0436
947.75,0.0434
947.50,0.0433
947.25,0.0432
947.00,0.0430
946.75,0.0428
946.50,0.0426
946.25,0.0424
946.00,0.0422
945.75,0.0421
945.50,0.0419
945.25,0.0416
945.00,0.0414
944.75,0.0411
944.50,0.0410
944.25,0.0410
944.00,0.0410
943.75,0.0411
943.50,0.0411
943.25,0.0411
943.00,0.0409
942.75,0.0407
942.50,0.0406
942.25,0.0404
942.00,0.0402
941.75,0.0400
941.50,0.0398
941.25,0.0397
941.00,0.0397
940.75,0.0398
940.50,0.0398
940.25,0.0398
940.00,0.0397
939.75,0.0397
939.50,0.0395
939.25,0.0393
939.00,0.0390
938.75,0.0387
938.50,0.0386
938.25,0.0386
938.00,0.0387
937.75,0.0389
937.50,0.0390
937.25,0.0389
937.00,0.0386
936.75,0.0383
936.50,0.0381
936.25,0.0380
936.00,0.0381
935.75,0.0383
935.50,0.0384
935.25,0.0383
935.00,0.0383
934.75,0.0382
934.50,0.0381
934.25,0.0380
934.00,0.0379
933.75,0.0377
933.50,0.0376
933.25,0.0376
933.00,0.0377
932.75,0.0378
932.50,0.0378
932.25,0.0378
932.00,0.0377
931.75,0.0374
931.50,0.0370
931.25,0.0367
931.00,0.0366
930.75,0.0367
930.50,0.0368
930.25,0.0370
930.00,0.0371
929.75,0.0370
929.50,0.0369
929.25,0.0368
929.00,0.0368
928.75,0.0369
928.50,0.0370
928.25,0.0370
928.00,0.0370
927.75,0.0371
927.50,0.0372
927.25,0.0373
927.00,0.0373
926.75,0.0371
926.50,0.0369
926.25,0.0369
926.00,0.0369
925.75,0.0370
925.50,0.0371
925.25,0.0370
925.00,0.0367
924.75,0.0364
924.50,0.0361
924.25,0.0358
924.00,0.0357
923.75,0.0358
923.50,0.0360
923.25,0.0362
923.00,0.0364
922.75,0.0366
922.50,0.0367
922.25,0.0367
922.00,0.0366
921.75,0.0365
921.50,0.0364
921.25,0.0363
921.00,0.0363
920.75,0.0364
920.50,0.0363
920.25,0.0362
920.00,0.0362
919.75,0.0364
919.50,0.0366
919.25,0.0367
919.00,0.0367
918.75,0.0367
918.50,0.0366
918.25,0.0368
918.00,0.0371
917.75,0.0373
917.50,0.0374
917.25,0.0373
917.00,0.0370
916.75,0.0367
916.50,0.0364
916.25,0.0362
916.00,0.0361
915.75,0.0362
915.50,0.0363
915.25,0.0365
915.00,0.0368
914.75,0.0371
914.50,0.0374
914.25,0.0377
914.00,0.0378
913.75,0.0378
913.50,0.0375
913.25,0.0372
913.00,0.0370
912.75,0.0368
912.50,0.0368
912.25,0.0369
912.00,0.0371
911.75,0.0372
911.50,0.0373
911.25,0.0374
911.00,0.0375
910.75,0.0376
910.50,0.0377
910.25,0.0378
910.00,0.0378
909.75,0.0378
909.50,0.0378
909.25,0.0379
909.00,0.0379
908.75,0.0379
908.50,0.0379
908.25,0.0379
908.00,0.0380
907.75,0.0382
907.50,0.0383
907.25,0.0385
907.00,0.0386
906.75,0.0387
906.50,0.0387
906.25,0.0385
906.00,0.0384
905.75,0.0383
905.50,0.0385
905.25,0.0388
905.00,0.0392
904.75,0.0394
904.50,0.0393
904.25,0.0391
904.00,0.0388
903.75,0.0387
903.50,0.0388
903.25,0.0390
903.00,0.0394
902.75,0.0397
902.50,0.0400
902.25,0.0403
902.00,0.0405
901.75,0.0406
901.50,0.0406
901.25,0.0406
901.00,0.0408
900.75,0.0410
900.50,0.0411
900.25,0.0411
900.00,0.0410
899.75,0.0409
899.50,0.0409
899.25,0.0409
899.00,0.0409
898.75,0.0409
898.50,0.0409
898.25,0.0410
898.00,0.0413
897.75,0.0416
897.50,0.0419
897.25,0.0423
897.00,0.0427
896.75,0.0432
896.50,0.0438
896.25,0.0445
896.00,0.0450
895.75,0.0451
895.50,0.0449
895.25,0.0445
895.00,0.0442
894.75,0.0441
894.50,0.0443
894.25,0.0446
894.00,0.0447
893.75,0.0448
893.50,0.0448
893.25,0.0450
893.00,0.0455
892.75,0.0460
892.50,0.0463
892.25,0.0465
892.00,0.0466
891.75,0.0468
891.50,0.0472
891.25,0.0477
891.00,0.0481
890.75,0.0485
890.50,0.0488
890.25,0.0489
890.00,0.0489
889.75,0.0489
889.50,0.0490
889.25,0.0492
889.00,0.0495
888.75,0.0498
888.50,0.0500
888.25,0.0505
888.00,0.0510
887.75,0.0516
887.50,0.0521
887.25,0.0524
887.00,0.0526
886.75,0.0530
886.50,0.0533
886.25,0.0537
886.00,0.0539
885.75,0.0541
885.50,0.0542
885.25,0.0546
885.00,0.0551
884.75,0.0559
884.50,0.0568
884.25,0.0576
884.00,0.0581
883.75,0.0585
883.50,0.0588
883.25,0.0590
883.00,0.0593
882.75,0.0597
882.50,0.0603
882.25,0.0611
882.00,0.0619
881.75,0.0628
881.50,0.0636
881.25,0.0643
881.00,0.0649
880.75,0.0656
880.50,0.0664
880.25,0.0673
880.00,0.0681
879.75,0.0689
879.50,0.0696
879.25,0.0703
879.00,0.0709
878.75,0.0716
878.50,0.0725
878.25,0.0737
878.00,0.0750
877.75,0.0763
877.50,0.0774
877.25,0.0784
877.00,0.0795
876.75,0.0806
876.50,0.0820
876.25,0.0833
876.00,0.0845
875.75,0.0855
875.50,0.0864
875.25,0.0874
875.00,0.0883
874.75,0.0894
874.50,0.0906
874.25,0.0920
874.00,0.0934
873.75,0.0948
873.50,0.0961
873.25,0.0975
873.00,0.0989
872.75,0.1005
872.50,0.1021
872.25,0.1038
872.00,0.1055
871.75,0.1071
871.50,0.1086
871.25,0.1100
871.00,0.1115
870.75,0.1129
870.50,0.1144
870.25,0.1159
870.00,0.1172
869.75,0.1185
869.50,0.1199
869.25,0.1213
869.00,0.1227
868.75,0.1241
868.50,0.1253
868.25,0.1264
868.00,0.1274
867.75,0.1285
867.50,0.1296
867.25,0.1309
867.00,0.1322
866.75,0.1335
866.50,0.1346
866.25,0.1354
866.00,0.1359
865.75,0.1362
865.50,0.1364
865.25,0.1365
865.00,0.1367
864.75,0.1370
864.50,0.1373
864.25,0.1376
864.00,0.1377
863.75,0.1375
863.50,0.1372
863.25,0.1369
863.00,0.1367
862.75,0.1367
862.50,0.1366
862.25,0.1362
862.00,0.1356
861.75,0.1349
861.50,0.1344
861.25,0.1340
861.00,0.1336
860.75,0.1329
860.50,0.1321
860.25,0.1314
860.00,0.1307
859.75,0.1303
859.50,0.1300
859.25,0.1298
859.00,0.1296
858.75,0.1292
858.50,0.1286
858.25,0.1279
858.00,0.1271
857.75,0.1263
857.50,0.1257
857.25,0.1253
857.00,0.1251
856.75,0.1251
856.50,0.1252
856.25,0.1253
856.00,0.1253
855.75,0.1254
855.50,0.1255
855.25,0.1257
855.00,0.1258
854.75,0.1259
854.50,0.1258
854.25,0.1258
854.00,0.1260
853.75,0.1264
853.50,0.1271
853.25,0.1279
853.00,0.1286
852.75,0.1293
852.50,0.1301
852.25,0.1310
852.00,0.1320
851.75,0.1329
851.50,0.1339
851.25,0.1348
851.00,0.1358
850.75,0.1369
850.50,0.1380
850.25,0.1392
850.00,0.1405
849.75,0.1417
849.50,0.1428
849.25,0.1440
849.00,0.1452
848.75,0.1466
848.50,0.1481
848.25,0.1497
848.00,0.1510
847.75,0.1521
847.50,0.1531
847.25,0.1540
847.00,0.1548
846.75,0.1552
846.50,0.1555
846.25,0.1559
846.00,0.1569
845.75,0.1585
845.50,0.1604
845.25,0.1620
845.00,0.1630
844.75,0.1636
844.50,0.1639
844.25,0.1642
844.00,0.1644
843.75,0.1646
843.50,0.1647
843.25,0.1647
843.00,0.1646
842.75,0.1642
842.50,0.1636
842.25,0.1628
842.00,0.1619
841.75,0.1608
841.50,0.1598
841.25,0.1588
841.00,0.1579
840.75,0.1570
840.50,0.1560
840.25,0.1550
840.00,0.1537
839.75,0.1521
839.50,0.1505
839.25,0.1489
839.00,0.1475
838.75,0.1464
838.50,0.1453
838.25,0.1443
838.00,0.1432
837.75,0.1420
837.50,0.1407
837.25,0.1395
837.00,0.1384
836.75,0.1375
836.50,0.1366
836.25,0.1356
836.00,0.1343
835.75,0.1328
835.50,0.1311
835.25,0.1298
835.00,0.1289
834.75,0.1283
834.50,0.1277
834.25,0.1269
834.00,0.1259
833.75,0.1252
833.50,0.1247
833.25,0.1243
833.00,0.1239
832.75,0.1234
832.50,0.1228
832.25,0.1224
832.00,0.1222
831.75,0.1223
831.50,0.1225
831.25,0.1224
831.00,0.1220
830.75,0.1214
830.50,0.1209
830.25,0.1208
830.00,0.1213
829.75,0.1222
829.50,0.1232
829.25,0.1240
829.00,0.1247
828.75,0.1255
828.50,0.1265
828.25,0.1277
828.00,0.1289
827.75,0.1300
827.50,0.1309
827.25,0.1316
827.00,0.1323
826.75,0.1333
826.50,0.1348
826.25,0.1366
826.00,0.1388
825.75,0.1410
825.50,0.1432
825.25,0.1453
825.00,0.1474
824.75,0.1496
824.50,0.1520
824.25,0.1545
824.00,0.1570
823.75,0.1595
823.50,0.1619
823.25,0.1642
823.00,0.1664
822.75,0.1685
822.50,0.1705
822.25,0.1725
822.00,0.1747
821.75,0.1772
821.50,0.1798
821.25,0.1824
821.00,0.1851
820.75,0.1876
820.50,0.1902
820.25,0.1927
820.00,0.1952
819.75,0.1976
819.50,0.1998
819.25,0.2017
819.00,0.2033
818.75,0.2048
818.50,0.2063
818.25,0.2077
818.00,0.2091
817.75,0.2102
817.50,0.2111
817.25,0.2121
817.00,0.2134
816.75,0.2151
816.50,0.2171
816.25,0.2188
816.00,0.2203
815.75,0.2216
815.50,0.2227
815.25,0.2238
815.00,0.2249
814.75,0.2263
814.50,0.2278
814.25,0.2294
814.00,0.2311
813.75,0.2327
813.50,0.2345
813.25,0.2365
813.00,0.2386
812.75,0.2409
812.50,0.2431
812.25,0.2450
812.00,0.2467
811.75,0.2482
811.50,0.2497
811.25,0.2515
811.00,0.2538
810.75,0.2565
810.50,0.2596
810.25,0.2626
810.00,0.2652
809.75,0.2675
809.50,0.2698
809.25,0.2724
809.00,0.2757
808.75,0.2792
808.50,0.2825
808.25,0.2855
808.00,0.2886
807.75,0.2921
807.50,0.2961
807.25,0.3002
807.00,0.3039
806.75,0.3071
806.50,0.3098
806.25,0.3125
806.00,0.3159
805.75,0.3202
805.50,0.3252
805.25,0.3304
805.00,0.3354
804.75,0.3400
804.50,0.3443
804.25,0.3485
804.00,0.3528
803.75,0.3570
803.50,0.3612
803.25,0.3652
803.00,0.3694
802.75,0.3736
802.50,0.3779
802.25,0.3824
802.00,0.3871
801.75,0.3921
801.50,0.3974
801.25,0.4027
801.00,0.4075
800.75,0.4117
800.50,0.4157
800.25,0.4200
800.00,0.4254
