Created as New Dataset,Sample 043 By irlear Date Wednesday, January 07 2009
cm-1,A
4000.00,0.0178
3999.75,0.0177
3999.50,0.0177
3999.25,0.0176
3999.00,0.0176
3998.75,0.0176
3998.50,0.0177
3998.25,0.0177
3998.00,0.0177
3997.75,0.0177
3997.50,0.0177
3997.25,0.0176
3997.00,0.0176
3996.75,0.0176
3996.50,0.0176
3996.25,0.0176
3996.00,0.0176
3995.75,0.0177
3995.50,0.0177
3995.25,0.0177
3995.00,0.0177
3994.75,0.0177
3994.50,0.0177
3994.25,0.0178
3994.00,0.0178
3993.75,0.0178
3993.50,0.0178
3993.25,0.0178
3993.00,0.0178
3992.75,0.0178
3992.50,0.0178
3992.25,0.0178
3992.00,0.0177
3991.75,0.0177
3991.50,0.0177
3991.25,0.0177
3991.00,0.0177
3990.75,0.0177
3990.50,0.0178
3990.25,0.0178
3990.00,0.0178
3989.75,0.0178
3989.50,0.0179
3989.25,0.0179
3989.00,0.0179
3988.75,0.0179
3988.50,0.0179
3988.25,0.0179
3988.00,0.0179
3987.75,0.0178
3987.50,0.0178
3987.25,0.0177
3987.00,0.0177
3986.75,0.0177
3986.50,0.0177
3986.25,0.0177
3986.00,0.0177
3985.75,0.0178
3985.50,0.0178
3985.25,0.0178
3985.00,0.0178
3984.75,0.0178
3984.50,0.0179
3984.25,0.0178
3984.00,0.0178
3983.75,0.0178
3983.50,0.0178
3983.25,0.0178
3983.00,0.0178
3982.75,0.0178
3982.50,0.0178
3982.25,0.0178
3982.00,0.0178
3981.75,0.0178
3981.50,0.0178
3981.25,0.0178
3981.00,0.0178
3980.75,0.0179
3980.50,0.0179
3980.25,0.0179
3980.00,0.0179
3979.75,0.0179
3979.50,0.0178
3979.25,0.0178
3979.00,0.0177
3978.75,0.0177
3978.50,0.0177
3978.25,0.0177
3978.00,0.0177
3977.75,0.0177
3977.50,0.0177
3977.25,0.0178
3977.00,0.0178
3976.75,0.0178
3976.50,0.0178
3976.25,0.0179
3976.00,0.0179
3975.75,0.0180
3975.50,0.0180
3975.25,0.0180
3975.00,0.0180
3974.75,0.0180
3974.50,0.0179
3974.25,0.0179
3974.00,0.0179
3973.75,0.0179
3973.50,0.0179
3973.25,0.0179
3973.00,0.0179
3972.75,0.0179
3972.50,0.0179
3972.25,0.0179
3972.00,0.0179
3971.75,0.0179
3971.50,0.0178
3971.25,0.0178
3971.00,0.0178
3970.75,0.0177
3970.50,0.0177
3970.25,0.0177
3970.00,0.0177
3969.75,0.0177
3969.50,0.0177
3969.25,0.0177
3969.00,0.0178
3968.75,0.0178
3968.50,0.0178
3968.25,0.0178
3968.00,0.0178
3967.75,0.0177
3967.50,0.0177
3967.25,0.0176
3967.00,0.0177
3966.75,0.0177
3966.50,0.0177
3966.25,0.0178
3966.00,0.0178
3965.75,0.0178
3965.50,0.0177
3965.25,0.0177
3965.00,0.0177
3964.75,0.0177
3964.50,0.0177
3964.25,0.0177
3964.00,0.0177
3963.75,0.0177
3963.50,0.0177
3963.25,0.0178
3963.00,0.0179
3962.75,0.0180
3962.50,0.0181
3962.25,0.0181
3962.00,0.0181
3961.75,0.0181
3961.50,0.0181
3961.25,0.0180
3961.00,0.0180
3960.75,0.0179
3960.50,0.0179
3960.25,0.0178
3960.00,0.0178
3959.75,0.0178
3959.50,0.0178
3959.25,0.0178
3959.00,0.0178
3958.75,0.0178
3958.50,0.0178
3958.25,0.0178
3958.00,0.0178
3957.75,0.0178
3957.50,0.0178
3957.25,0.0178
3957.00,0.0179
3956.75,0.0179
3956.50,0.0180
3956.25,0.0180
3956.00,0.0180
3955.75,0.0179
3955.50,0.0179
3955.25,0.0178
3955.00,0.0178
3954.75,0.0177
3954.50,0.0177
3954.25,0.0177
3954.00,0.0178
3953.75,0.0178
3953.50,0.0178
3953.25,0.0179
3953.00,0.0179
3952.75,0.0179
3952.50,0.0179
3952.25,0.0179
3952.00,0.0178
3951.75,0.0178
3951.50,0.0178
3951.25,0.0178
3951.00,0.0178
3950.75,0.0179
3950.50,0.0180
3950.25,0.0181
3950.00,0.0182
3949.75,0.0183
3949.50,0.0183
3949.25,0.0183
3949.00,0.0183
3948.75,0.0183
3948.50,0.0183
3948.25,0.0183
3948.00,0.0183
3947.75,0.0183
3947.50,0.0183
3947.25,0.0182
3947.00,0.0182
3946.75,0.0182
3946.50,0.0181
3946.25,0.0180
3946.00,0.0180
3945.75,0.0179
3945.50,0.0179
3945.25,0.0178
3945.00,0.0178
3944.75,0.0179
3944.50,0.0179
3944.25,0.0179
3944.00,0.0180
3943.75,0.0181
3943.50,0.0181
3943.25,0.0182
3943.00,0.0183
3942.75,0.0185
3942.50,0.0186
3942.25,0.0186
3942.00,0.0186
3941.75,0.0185
3941.50,0.0184
3941.25,0.0182
3941.00,0.0181
3940.75,0.0179
3940.50,0.0179
3940.25,0.0178
3940.00,0.0178
3939.75,0.0178
3939.50,0.0178
3939.25,0.0178
3939.00,0.0178
3938.75,0.0178
3938.50,0.0178
3938.25,0.0179
3938.00,0.0179
3937.75,0.0179
3937.50,0.0179
3937.25,0.0179
3937.00,0.0178
3936.75,0.0178
3936.50,0.0177
3936.25,0.0177
3936.00,0.0177
3935.75,0.0177
3935.50,0.0177
3935.25,0.0178
3935.00,0.0178
3934.75,0.0179
3934.50,0.0180
3934.25,0.0180
3934.00,0.0180
3933.75,0.0180
3933.50,0.0180
3933.25,0.0180
3933.00,0.0181
3932.75,0.0181
3932.50,0.0182
3932.25,0.0184
3932.00,0.0185
3931.75,0.0186
3931.50,0.0186
3931.25,0.0186
3931.00,0.0185
3930.75,0.0184
3930.50,0.0183
3930.25,0.0182
3930.00,0.0182
3929.75,0.0182
3929.50,0.0182
3929.25,0.0182
3929.00,0.0182
3928.75,0.0181
3928.50,0.0181
3928.25,0.0180
3928.00,0.0180
3927.75,0.0179
3927.50,0.0179
3927.25,0.0179
3927.00,0.0178
3926.75,0.0178
3926.50,0.0178
3926.25,0.0178
3926.00,0.0179
3925.75,0.0179
3925.50,0.0180
3925.25,0.0181
3925.00,0.0183
3924.75,0.0184
3924.50,0.0185
3924.25,0.0186
3924.00,0.0187
3923.75,0.0187
3923.50,0.0186
3923.25,0.0186
3923.00,0.0184
3922.75,0.0183
3922.50,0.0181
3922.25,0.0180
3922.00,0.0179
3921.75,0.0178
3921.50,0.0178
3921.25,0.0178
3921.00,0.0178
3920.75,0.0179
3920.50,0.0179
3920.25,0.0180
3920.00,0.0181
3919.75,0.0182
3919.50,0.0182
3919.25,0.0183
3919.00,0.0182
3918.75,0.0182
3918.50,0.0181
3918.25,0.0181
3918.00,0.0181
3917.75,0.0180
3917.50,0.0181
3917.25,0.0182
3917.00,0.0183
3916.75,0.0185
3916.50,0.0187
3916.25,0.0188
3916.00,0.0187
3915.75,0.0186
3915.50,0.0184
3915.25,0.0182
3915.00,0.0180
3914.75,0.0179
3914.50,0.0178
3914.25,0.0177
3914.00,0.0177
3913.75,0.0177
3913.50,0.0177
3913.25,0.0177
3913.00,0.0177
3912.75,0.0177
3912.50,0.0177
3912.25,0.0177
3912.00,0.0178
3911.75,0.0178
3911.50,0.0178
3911.25,0.0178
3911.00,0.0177
3910.75,0.0177
3910.50,0.0177
3910.25,0.0177
3910.00,0.0178
3909.75,0.0178
3909.50,0.0178
3909.25,0.0179
3909.00,0.0179
3908.75,0.0179
3908.50,0.0179
3908.25,0.0178
3908.00,0.0177
3907.75,0.0177
3907.50,0.0176
3907.25,0.0177
3907.00,0.0178
3906.75,0.0179
3906.50,0.0180
3906.25,0.0181
3906.00,0.0183
3905.75,0.0185
3905.50,0.0187
3905.25,0.0188
3905.00,0.0189
3904.75,0.0190
3904.50,0.0190
3904.25,0.0189
3904.00,0.0189
3903.75,0.0189
3903.50,0.0189
3903.25,0.0189
3903.00,0.0189
3902.75,0.0189
3902.50,0.0190
3902.25,0.0190
3902.00,0.0190
3901.75,0.0190
3901.50,0.0189
3901.25,0.0189
3901.00,0.0189
3900.75,0.0188
3900.50,0.0186
3900.25,0.0185
3900.00,0.0185
3899.75,0.0184
3899.50,0.0184
3899.25,0.0185
3899.00,0.0187
3898.75,0.0188
3898.50,0.0189
3898.25,0.0188
3898.00,0.0187
3897.75,0.0186
3897.50,0.0185
3897.25,0.0183
3897.00,0.0181
3896.75,0.0179
3896.50,0.0178
3896.25,0.0177
3896.00,0.0177
3895.75,0.0177
3895.50,0.0177
3895.25,0.0177
3895.00,0.0178
3894.75,0.0179
3894.50,0.0180
3894.25,0.0180
3894.00,0.0181
3893.75,0.0181
3893.50,0.0181
3893.25,0.0181
3893.00,0.0181
3892.75,0.0182
3892.50,0.0183
3892.25,0.0184
3892.00,0.0185
3891.75,0.0186
3891.50,0.0186
3891.25,0.0187
3891.00,0.0187
3890.75,0.0187
3890.50,0.0187
3890.25,0.0185
3890.00,0.0184
3889.75,0.0183
3889.50,0.0182
3889.25,0.0181
3889.00,0.0181
3888.75,0.0180
3888.50,0.0180
3888.25,0.0179
3888.00,0.0179
3887.75,0.0179
3887.50,0.0178
3887.25,0.0179
3887.00,0.0179
3886.75,0.0180
3886.50,0.0182
3886.25,0.0184
3886.00,0.0186
3885.75,0.0187
3885.50,0.0188
3885.25,0.0188
3885.00,0.0188
3884.75,0.0186
3884.50,0.0185
3884.25,0.0184
3884.00,0.0183
3883.75,0.0183
3883.50,0.0183
3883.25,0.0183
3883.00,0.0183
3882.75,0.0183
3882.50,0.0183
3882.25,0.0183
3882.00,0.0182
3881.75,0.0183
3881.50,0.0183
3881.25,0.0184
3881.00,0.0186
3880.75,0.0187
3880.50,0.0188
3880.25,0.0189
3880.00,0.0190
3879.75,0.0190
3879.50,0.0189
3879.25,0.0187
3879.00,0.0185
3878.75,0.0183
3878.50,0.0182
3878.25,0.0181
3878.00,0.0180
3877.75,0.0180
3877.50,0.0179
3877.25,0.0178
3877.00,0.0178
3876.75,0.0177
3876.50,0.0177
3876.25,0.0177
3876.00,0.0177
3875.75,0.0178
3875.50,0.0179
3875.25,0.0180
3875.00,0.0181
3874.75,0.0182
3874.50,0.0185
3874.25,0.0187
3874.00,0.0190
3873.75,0.0190
3873.50,0.0189
3873.25,0.0186
3873.00,0.0184
3872.75,0.0182
3872.50,0.0181
3872.25,0.0181
3872.00,0.0181
3871.75,0.0182
3871.50,0.0183
3871.25,0.0185
3871.00,0.0187
3870.75,0.0188
3870.50,0.0190
3870.25,0.0191
3870.00,0.0192
3869.75,0.0192
3869.50,0.0192
3869.25,0.0192
3869.00,0.0190
3868.75,0.0189
3868.50,0.0187
3868.25,0.0186
3868.00,0.0184
3867.75,0.0183
3867.50,0.0182
3867.25,0.0181
3867.00,0.0181
3866.75,0.0181
3866.50,0.0181
3866.25,0.0181
3866.00,0.0182
3865.75,0.0183
3865.50,0.0185
3865.25,0.0185
3865.00,0.0186
3864.75,0.0187
3864.50,0.0189
3864.25,0.0190
3864.00,0.0190
3863.75,0.0190
3863.50,0.0189
3863.25,0.0189
3863.00,0.0188
3862.75,0.0187
3862.50,0.0186
3862.25,0.0186
3862.00,0.0185
3861.75,0.0185
3861.50,0.0184
3861.25,0.0183
3861.00,0.0183
3860.75,0.0182
3860.50,0.0181
3860.25,0.0180
3860.00,0.0179
3859.75,0.0179
3859.50,0.0178
3859.25,0.0178
3859.00,0.0178
3858.75,0.0178
3858.50,0.0179
3858.25,0.0180
3858.00,0.0181
3857.75,0.0183
3857.50,0.0184
3857.25,0.0186
3857.00,0.0188
3856.75,0.0188
3856.50,0.0187
3856.25,0.0186
3856.00,0.0186
3855.75,0.0186
3855.50,0.0186
3855.25,0.0187
3855.00,0.0188
3854.75,0.0189
3854.50,0.0189
3854.25,0.0187
3854.00,0.0187
3853.75,0.0192
3853.50,0.0195
3853.25,0.0195
3853.00,0.0194
3852.75,0.0194
3852.50,0.0195
3852.25,0.0195
3852.00,0.0193
3851.75,0.0190
3851.50,0.0189
3851.25,0.0187
3851.00,0.0186
3850.75,0.0184
3850.50,0.0184
3850.25,0.0184
3850.00,0.0184
3849.75,0.0184
3849.50,0.0184
3849.25,0.0184
3849.00,0.0183
3848.75,0.0182
3848.50,0.0181
3848.25,0.0180
3848.00,0.0179
3847.75,0.0179
3847.50,0.0178
3847.25,0.0178
3847.00,0.0179
3846.75,0.0179
3846.50,0.0179
3846.25,0.0179
3846.00,0.0179
3845.75,0.0179
3845.50,0.0179
3845.25,0.0180
3845.00,0.0180
3844.75,0.0181
3844.50,0.0182
3844.25,0.0183
3844.00,0.0184
3843.75,0.0185
3843.50,0.0186
3843.25,0.0186
3843.00,0.0186
3842.75,0.0184
3842.50,0.0183
3842.25,0.0183
3842.00,0.0182
3841.75,0.0183
3841.50,0.0183
3841.25,0.0184
3841.00,0.0185
3840.75,0.0187
3840.50,0.0189
3840.25,0.0191
3840.00,0.0191
3839.75,0.0192
3839.50,0.0192
3839.25,0.0192
3839.00,0.0192
3838.75,0.0191
3838.50,0.0190
3838.25,0.0189
3838.00,0.0187
3837.75,0.0186
3837.50,0.0186
3837.25,0.0187
3837.00,0.0185
3836.75,0.0183
3836.50,0.0183
3836.25,0.0183
3836.00,0.0184
3835.75,0.0184
3835.50,0.0184
3835.25,0.0185
3835.00,0.0185
3834.75,0.0186
3834.50,0.0186
3834.25,0.0186
3834.00,0.0184
3833.75,0.0183
3833.50,0.0182
3833.25,0.0182
3833.00,0.0182
3832.75,0.0183
3832.50,0.0184
3832.25,0.0185
3832.00,0.0186
3831.75,0.0186
3831.50,0.0186
3831.25,0.0186
3831.00,0.0185
3830.75,0.0183
3830.50,0.0182
3830.25,0.0181
3830.00,0.0181
3829.75,0.0181
3829.50,0.0181
3829.25,0.0180
3829.00,0.0180
3828.75,0.0180
3828.50,0.0180
3828.25,0.0181
3828.00,0.0182
3827.75,0.0182
3827.50,0.0183
3827.25,0.0184
3827.00,0.0184
3826.75,0.0185
3826.50,0.0185
3826.25,0.0185
3826.00,0.0185
3825.75,0.0184
3825.50,0.0184
3825.25,0.0183
3825.00,0.0182
3824.75,0.0181
3824.50,0.0181
3824.25,0.0181
3824.00,0.0181
3823.75,0.0181
3823.50,0.0182
3823.25,0.0182
3823.00,0.0183
3822.75,0.0184
3822.50,0.0185
3822.25,0.0187
3822.00,0.0188
3821.75,0.0190
3821.50,0.0193
3821.25,0.0195
3821.00,0.0196
3820.75,0.0197
3820.50,0.0196
3820.25,0.0194
3820.00,0.0192
3819.75,0.0189
3819.50,0.0187
3819.25,0.0185
3819.00,0.0183
3818.75,0.0183
3818.50,0.0182
3818.25,0.0182
3818.00,0.0182
3817.75,0.0182
3817.50,0.0183
3817.25,0.0183
3817.00,0.0184
3816.75,0.0184
3816.50,0.0185
3816.25,0.0185
3816.00,0.0185
3815.75,0.0187
3815.50,0.0188
3815.25,0.0187
3815.00,0.0185
3814.75,0.0183
3814.50,0.0183
3814.25,0.0183
3814.00,0.0182
3813.75,0.0181
3813.50,0.0180
3813.25,0.0180
3813.00,0.0179
3812.75,0.0178
3812.50,0.0178
3812.25,0.0178
3812.00,0.0178
3811.75,0.0178
3811.50,0.0179
3811.25,0.0179
3811.00,0.0179
3810.75,0.0179
3810.50,0.0179
3810.25,0.0178
3810.00,0.0178
3809.75,0.0178
3809.50,0.0178
3809.25,0.0179
3809.00,0.0179
3808.75,0.0180
3808.50,0.0181
3808.25,0.0182
3808.00,0.0183
3807.75,0.0183
3807.50,0.0184
3807.25,0.0184
3807.00,0.0184
3806.75,0.0184
3806.50,0.0184
3806.25,0.0184
3806.00,0.0183
3805.75,0.0182
3805.50,0.0182
3805.25,0.0182
3805.00,0.0182
3804.75,0.0181
3804.50,0.0181
3804.25,0.0181
3804.00,0.0181
3803.75,0.0181
3803.50,0.0182
3803.25,0.0183
3803.00,0.0184
3802.75,0.0186
3802.50,0.0188
3802.25,0.0189
3802.00,0.0190
3801.75,0.0190
3801.50,0.0190
3801.25,0.0190
3801.00,0.0190
3800.75,0.0190
3800.50,0.0188
3800.25,0.0186
3800.00,0.0186
3799.75,0.0185
3799.50,0.0185
3799.25,0.0184
3799.00,0.0182
3798.75,0.0181
3798.50,0.0181
3798.25,0.0181
3798.00,0.0182
3797.75,0.0184
3797.50,0.0185
3797.25,0.0186
3797.00,0.0186
3796.75,0.0186
3796.50,0.0186
3796.25,0.0185
3796.00,0.0185
3795.75,0.0184
3795.50,0.0184
3795.25,0.0182
3795.00,0.0182
3794.75,0.0181
3794.50,0.0180
3794.25,0.0179
3794.00,0.0179
3793.75,0.0178
3793.50,0.0179
3793.25,0.0179
3793.00,0.0178
3792.75,0.0178
3792.50,0.0178
3792.25,0.0178
3792.00,0.0178
3791.75,0.0179
3791.50,0.0179
3791.25,0.0179
3791.00,0.0179
3790.75,0.0179
3790.50,0.0179
3790.25,0.0179
3790.00,0.0179
3789.75,0.0179
3789.50,0.0179
3789.25,0.0179
3789.00,0.0178
3788.75,0.0178
3788.50,0.0178
3788.25,0.0178
3788.00,0.0178
3787.75,0.0178
3787.50,0.0179
3787.25,0.0179
3787.00,0.0180
3786.75,0.0180
3786.50,0.0181
3786.25,0.0181
3786.00,0.0181
3785.75,0.0182
3785.50,0.0182
3785.25,0.0183
3785.00,0.0184
3784.75,0.0185
3784.50,0.0185
3784.25,0.0185
3784.00,0.0185
3783.75,0.0184
3783.50,0.0183
3783.25,0.0182
3783.00,0.0181
3782.75,0.0180
3782.50,0.0180
3782.25,0.0180
3782.00,0.0179
3781.75,0.0179
3781.50,0.0179
3781.25,0.0178
3781.00,0.0178
3780.75,0.0179
3780.50,0.0180
3780.25,0.0181
3780.00,0.0182
3779.75,0.0184
3779.50,0.0185
3779.25,0.0185
3779.00,0.0185
3778.75,0.0184
3778.50,0.0183
3778.25,0.0182
3778.00,0.0182
3777.75,0.0181
3777.50,0.0181
3777.25,0.0181
3777.00,0.0180
3776.75,0.0180
3776.50,0.0179
3776.25,0.0179
3776.00,0.0178
3775.75,0.0178
3775.50,0.0178
3775.25,0.0178
3775.00,0.0178
3774.75,0.0179
3774.50,0.0179
3774.25,0.0179
3774.00,0.0179
3773.75,0.0179
3773.50,0.0179
3773.25,0.0180
3773.00,0.0180
3772.75,0.0179
3772.50,0.0179
3772.25,0.0179
3772.00,0.0179
3771.75,0.0180
3771.50,0.0180
3771.25,0.0181
3771.00,0.0182
3770.75,0.0183
3770.50,0.0185
3770.25,0.0186
3770.00,0.0186
3769.75,0.0186
3769.50,0.0185
3769.25,0.0184
3769.00,0.0183
3768.75,0.0182
3768.50,0.0182
3768.25,0.0182
3768.00,0.0182
3767.75,0.0182
3767.50,0.0181
3767.25,0.0181
3767.00,0.0181
3766.75,0.0181
3766.50,0.0182
3766.25,0.0183
3766.00,0.0184
3765.75,0.0185
3765.50,0.0185
3765.25,0.0184
3765.00,0.0184
3764.75,0.0183
3764.50,0.0183
3764.25,0.0183
3764.00,0.0183
3763.75,0.0183
3763.50,0.0182
3763.25,0.0182
3763.00,0.0181
3762.75,0.0181
3762.50,0.0180
3762.25,0.0180
3762.00,0.0180
3761.75,0.0180
3761.50,0.0180
3761.25,0.0181
3761.00,0.0182
3760.75,0.0182
3760.50,0.0183
3760.25,0.0184
3760.00,0.0185
3759.75,0.0187
3759.50,0.0188
3759.25,0.0189
3759.00,0.0189
3758.75,0.0188
3758.50,0.0187
3758.25,0.0186
3758.00,0.0185
3757.75,0.0184
3757.50,0.0183
3757.25,0.0183
3757.00,0.0184
3756.75,0.0184
3756.50,0.0185
3756.25,0.0186
3756.00,0.0186
3755.75,0.0185
3755.50,0.0185
3755.25,0.0184
3755.00,0.0184
3754.75,0.0184
3754.50,0.0184
3754.25,0.0184
3754.00,0.0184
3753.75,0.0186
3753.50,0.0187
3753.25,0.0189
3753.00,0.0189
3752.75,0.0189
3752.50,0.0188
3752.25,0.0187
3752.00,0.0188
3751.75,0.0192
3751.50,0.0194
3751.25,0.0194
3751.00,0.0194
3750.75,0.0195
3750.50,0.0196
3750.25,0.0196
3750.00,0.0196
3749.75,0.0194
3749.50,0.0191
3749.25,0.0188
3749.00,0.0188
3748.75,0.0189
3748.50,0.0188
3748.25,0.0187
3748.00,0.0187
3747.75,0.0188
3747.50,0.0188
3747.25,0.0188
3747.00,0.0187
3746.75,0.0187
3746.50,0.0187
3746.25,0.0187
3746.00,0.0188
3745.75,0.0188
3745.50,0.0189
3745.25,0.0190
3745.00,0.0190
3744.75,0.0190
3744.50,0.0189
3744.25,0.0191
3744.00,0.0194
3743.75,0.0194
3743.50,0.0193
3743.25,0.0191
3743.00,0.0190
3742.75,0.0188
3742.50,0.0187
3742.25,0.0186
3742.00,0.0185
3741.75,0.0185
3741.50,0.0185
3741.25,0.0186
3741.00,0.0187
3740.75,0.0187
3740.50,0.0186
3740.25,0.0185
3740.00,0.0183
3739.75,0.0182
3739.50,0.0182
3739.25,0.0182
3739.00,0.0182
3738.75,0.0183
3738.50,0.0184
3738.25,0.0184
3738.00,0.0184
3737.75,0.0185
3737.50,0.0185
3737.25,0.0186
3737.00,0.0187
3736.75,0.0188
3736.50,0.0189
3736.25,0.0191
3736.00,0.0194
3735.75,0.0197
3735.50,0.0200
3735.25,0.0204
3735.00,0.0207
3734.75,0.0209
3734.50,0.0207
3734.25,0.0204
3734.00,0.0201
3733.75,0.0197
3733.50,0.0194
3733.25,0.0192
3733.00,0.0190
3732.75,0.0190
3732.50,0.0189
3732.25,0.0188
3732.00,0.0185
3731.75,0.0183
3731.50,0.0182
3731.25,0.0181
3731.00,0.0181
3730.75,0.0182
3730.50,0.0183
3730.25,0.0183
3730.00,0.0183
3729.75,0.0182
3729.50,0.0181
3729.25,0.0180
3729.00,0.0180
3728.75,0.0180
3728.50,0.0180
3728.25,0.0180
3728.00,0.0181
3727.75,0.0181
3727.50,0.0182
3727.25,0.0183
3727.00,0.0183
3726.75,0.0184
3726.50,0.0184
3726.25,0.0185
3726.00,0.0186
3725.75,0.0186
3725.50,0.0186
3725.25,0.0186
3725.00,0.0186
3724.75,0.0186
3724.50,0.0186
3724.25,0.0186
3724.00,0.0186
3723.75,0.0186
3723.50,0.0186
3723.25,0.0186
3723.00,0.0186
3722.75,0.0186
3722.50,0.0186
3722.25,0.0187
3722.00,0.0188
3721.75,0.0188
3721.50,0.0187
3721.25,0.0186
3721.00,0.0184
3720.75,0.0183
3720.50,0.0182
3720.25,0.0181
3720.00,0.0181
3719.75,0.0181
3719.50,0.0182
3719.25,0.0183
3719.00,0.0184
3718.75,0.0184
3718.50,0.0184
3718.25,0.0184
3718.00,0.0183
3717.75,0.0182
3717.50,0.0181
3717.25,0.0180
3717.00,0.0180
3716.75,0.0179
3716.50,0.0179
3716.25,0.0179
3716.00,0.0178
3715.75,0.0178
3715.50,0.0178
3715.25,0.0179
3715.00,0.0180
3714.75,0.0182
3714.50,0.0182
3714.25,0.0183
3714.00,0.0183
3713.75,0.0183
3713.50,0.0184
3713.25,0.0185
3713.00,0.0186
3712.75,0.0187
3712.50,0.0188
3712.25,0.0189
3712.00,0.0189
3711.75,0.0189
3711.50,0.0190
3711.25,0.0190
3711.00,0.0189
3710.75,0.0190
3710.50,0.0191
3710.25,0.0190
3710.00,0.0190
3709.75,0.0188
3709.50,0.0187
3709.25,0.0186
3709.00,0.0185
3708.75,0.0185
3708.50,0.0183
3708.25,0.0182
3708.00,0.0181
3707.75,0.0181
3707.50,0.0181
3707.25,0.0181
3707.00,0.0181
3706.75,0.0180
3706.50,0.0180
3706.25,0.0180
3706.00,0.0180
3705.75,0.0181
3705.50,0.0181
3705.25,0.0181
3705.00,0.0180
3704.75,0.0180
3704.50,0.0179
3704.25,0.0180
3704.00,0.0180
3703.75,0.0181
3703.50,0.0181
3703.25,0.0180
3703.00,0.0181
3702.75,0.0181
3702.50,0.0182
3702.25,0.0184
3702.00,0.0185
3701.75,0.0185
3701.50,0.0185
3701.25,0.0185
3701.00,0.0184
3700.75,0.0184
3700.50,0.0183
3700.25,0.0183
3700.00,0.0182
3699.75,0.0182
3699.50,0.0181
3699.25,0.0181
3699.00,0.0181
3698.75,0.0181
3698.50,0.0181
3698.25,0.0181
3698.00,0.0180
3697.75,0.0180
3697.50,0.0180
3697.25,0.0180
3697.00,0.0181
3696.75,0.0181
3696.50,0.0181
3696.25,0.0181
3696.00,0.0180
3695.75,0.0180
3695.50,0.0180
3695.25,0.0181
3695.00,0.0181
3694.75,0.0181
3694.50,0.0180
3694.25,0.0180
3694.00,0.0180
3693.75,0.0180
3693.50,0.0181
3693.25,0.0182
3693.00,0.0182
3692.75,0.0182
3692.50,0.0182
3692.25,0.0182
3692.00,0.0184
3691.75,0.0186
3691.50,0.0188
3691.25,0.0189
3691.00,0.0190
3690.75,0.0190
3690.50,0.0189
3690.25,0.0189
3690.00,0.0189
3689.75,0.0189
3689.50,0.0189
3689.25,0.0189
3689.00,0.0188
3688.75,0.0187
3688.50,0.0185
3688.25,0.0184
3688.00,0.0184
3687.75,0.0185
3687.50,0.0184
3687.25,0.0183
3687.00,0.0183
3686.75,0.0183
3686.50,0.0183
3686.25,0.0182
3686.00,0.0182
3685.75,0.0181
3685.50,0.0181
3685.25,0.0180
3685.00,0.0179
3684.75,0.0178
3684.50,0.0178
3684.25,0.0178
3684.00,0.0178
3683.75,0.0179
3683.50,0.0179
3683.25,0.0179
3683.00,0.0179
3682.75,0.0179
3682.50,0.0179
3682.25,0.0180
3682.00,0.0180
3681.75,0.0180
3681.50,0.0180
3681.25,0.0179
3681.00,0.0179
3680.75,0.0179
3680.50,0.0179
3680.25,0.0180
3680.00,0.0182
3679.75,0.0183
3679.50,0.0184
3679.25,0.0184
3679.00,0.0184
3678.75,0.0183
3678.50,0.0183
3678.25,0.0183
3678.00,0.0184
3677.75,0.0185
3677.50,0.0186
3677.25,0.0187
3677.00,0.0188
3676.75,0.0189
3676.50,0.0190
3676.25,0.0190
3676.00,0.0191
3675.75,0.0192
3675.50,0.0195
3675.25,0.0198
3675.00,0.0200
3674.75,0.0200
3674.50,0.0198
3674.25,0.0195
3674.00,0.0191
3673.75,0.0188
3673.50,0.0185
3673.25,0.0183
3673.00,0.0182
3672.75,0.0181
3672.50,0.0181
3672.25,0.0182
3672.00,0.0183
3671.75,0.0184
3671.50,0.0186
3671.25,0.0187
3671.00,0.0188
3670.75,0.0188
3670.50,0.0188
3670.25,0.0189
3670.00,0.0190
3669.75,0.0190
3669.50,0.0190
3669.25,0.0191
3669.00,0.0191
3668.75,0.0190
3668.50,0.0189
3668.25,0.0188
3668.00,0.0186
3667.75,0.0184
3667.50,0.0183
3667.25,0.0182
3667.00,0.0181
3666.75,0.0180
3666.50,0.0180
3666.25,0.0179
3666.00,0.0178
3665.75,0.0177
3665.50,0.0177
3665.25,0.0177
3665.00,0.0177
3664.75,0.0177
3664.50,0.0178
3664.25,0.0178
3664.00,0.0178
3663.75,0.0179
3663.50,0.0179
3663.25,0.0178
3663.00,0.0178
3662.75,0.0177
3662.50,0.0177
3662.25,0.0177
3662.00,0.0177
3661.75,0.0178
3661.50,0.0178
3661.25,0.0179
3661.00,0.0179
3660.75,0.0179
3660.50,0.0179
3660.25,0.0180
3660.00,0.0180
3659.75,0.0180
3659.50,0.0180
3659.25,0.0180
3659.00,0.0180
3658.75,0.0179
3658.50,0.0179
3658.25,0.0179
3658.00,0.0179
3657.75,0.0180
3657.50,0.0180
3657.25,0.0181
3657.00,0.0183
3656.75,0.0184
3656.50,0.0185
3656.25,0.0185
3656.00,0.0184
3655.75,0.0183
3655.50,0.0182
3655.25,0.0181
3655.00,0.0181
3654.75,0.0181
3654.50,0.0181
3654.25,0.0181
3654.00,0.0181
3653.75,0.0181
3653.50,0.0181
3653.25,0.0182
3653.00,0.0182
3652.75,0.0183
3652.50,0.0184
3652.25,0.0185
3652.00,0.0186
3651.75,0.0186
3651.50,0.0187
3651.25,0.0188
3651.00,0.0189
3650.75,0.0192
3650.50,0.0195
3650.25,0.0198
3650.00,0.0199
3649.75,0.0200
3649.50,0.0199
3649.25,0.0198
3649.00,0.0196
3648.75,0.0195
3648.50,0.0195
3648.25,0.0195
3648.00,0.0195
3647.75,0.0196
3647.50,0.0197
3647.25,0.0196
3647.00,0.0195
3646.75,0.0195
3646.50,0.0194
3646.25,0.0193
3646.00,0.0192
3645.75,0.0190
3645.50,0.0189
3645.25,0.0187
3645.00,0.0186
3644.75,0.0185
3644.50,0.0184
3644.25,0.0184
3644.00,0.0183
3643.75,0.0183
3643.50,0.0182
3643.25,0.0182
3643.00,0.0182
3642.75,0.0182
3642.50,0.0182
3642.25,0.0182
3642.00,0.0182
3641.75,0.0183
3641.50,0.0182
3641.25,0.0182
3641.00,0.0181
3640.75,0.0180
3640.50,0.0179
3640.25,0.0179
3640.00,0.0179
3639.75,0.0179
3639.50,0.0180
3639.25,0.0180
3639.00,0.0181
3638.75,0.0181
3638.50,0.0182
3638.25,0.0183
3638.00,0.0183
3637.75,0.0183
3637.50,0.0183
3637.25,0.0182
3637.00,0.0181
3636.75,0.0181
3636.50,0.0180
3636.25,0.0180
3636.00,0.0180
3635.75,0.0180
3635.50,0.0179
3635.25,0.0180
3635.00,0.0180
3634.75,0.0181
3634.50,0.0181
3634.25,0.0182
3634.00,0.0182
3633.75,0.0183
3633.50,0.0184
3633.25,0.0184
3633.00,0.0184
3632.75,0.0184
3632.50,0.0184
3632.25,0.0183
3632.00,0.0183
3631.75,0.0183
3631.50,0.0183
3631.25,0.0184
3631.00,0.0185
3630.75,0.0186
3630.50,0.0188
3630.25,0.0189
3630.00,0.0191
3629.75,0.0192
3629.50,0.0194
3629.25,0.0197
3629.00,0.0199
3628.75,0.0200
3628.50,0.0200
3628.25,0.0199
3628.00,0.0196
3627.75,0.0194
3627.50,0.0191
3627.25,0.0189
3627.00,0.0188
3626.75,0.0187
3626.50,0.0186
3626.25,0.0185
3626.00,0.0184
3625.75,0.0184
3625.50,0.0183
3625.25,0.0183
3625.00,0.0181
3624.75,0.0180
3624.50,0.0180
3624.25,0.0180
3624.00,0.0180
3623.75,0.0180
3623.50,0.0181
3623.25,0.0181
3623.00,0.0181
3622.75,0.0181
3622.50,0.0181
3622.25,0.0181
3622.00,0.0183
3621.75,0.0184
3621.50,0.0185
3621.25,0.0185
3621.00,0.0185
3620.75,0.0185
3620.50,0.0185
3620.25,0.0186
3620.00,0.0187
3619.75,0.0187
3619.50,0.0187
3619.25,0.0188
3619.00,0.0189
3618.75,0.0190
3618.50,0.0191
3618.25,0.0192
3618.00,0.0193
3617.75,0.0192
3617.50,0.0191
3617.25,0.0190
3617.00,0.0189
3616.75,0.0187
3616.50,0.0186
3616.25,0.0185
3616.00,0.0185
3615.75,0.0185
3615.50,0.0186
3615.25,0.0187
3615.00,0.0189
3614.75,0.0190
3614.50,0.0191
3614.25,0.0191
3614.00,0.0190
3613.75,0.0189
3613.50,0.0189
3613.25,0.0189
3613.00,0.0190
3612.75,0.0190
3612.50,0.0190
3612.25,0.0190
3612.00,0.0189
3611.75,0.0188
3611.50,0.0187
3611.25,0.0186
3611.00,0.0185
3610.75,0.0185
3610.50,0.0185
3610.25,0.0185
3610.00,0.0186
3609.75,0.0186
3609.50,0.0187
3609.25,0.0187
3609.00,0.0187
3608.75,0.0186
3608.50,0.0186
3608.25,0.0185
3608.00,0.0186
3607.75,0.0186
3607.50,0.0187
3607.25,0.0188
3607.00,0.0189
3606.75,0.0188
3606.50,0.0187
3606.25,0.0186
3606.00,0.0185
3605.75,0.0184
3605.50,0.0183
3605.25,0.0182
3605.00,0.0181
3604.75,0.0181
3604.50,0.0181
3604.25,0.0181
3604.00,0.0181
3603.75,0.0182
3603.50,0.0181
3603.25,0.0181
3603.00,0.0182
3602.75,0.0182
3602.50,0.0184
3602.25,0.0184
3602.00,0.0185
3601.75,0.0184
3601.50,0.0184
3601.25,0.0183
3601.00,0.0183
3600.75,0.0183
3600.50,0.0184
3600.25,0.0185
3600.00,0.0186
3599.75,0.0186
3599.50,0.0186
3599.25,0.0186
3599.00,0.0185
3598.75,0.0185
3598.50,0.0185
3598.25,0.0185
3598.00,0.0184
3597.75,0.0184
3597.50,0.0183
3597.25,0.0183
3597.00,0.0182
3596.75,0.0183
3596.50,0.0184
3596.25,0.0185
3596.00,0.0187
3595.75,0.0188
3595.50,0.0189
3595.25,0.0190
3595.00,0.0190
3594.75,0.0189
3594.50,0.0188
3594.25,0.0188
3594.00,0.0188
3593.75,0.0188
3593.50,0.0188
3593.25,0.0188
3593.00,0.0188
3592.75,0.0187
3592.50,0.0186
3592.25,0.0185
3592.00,0.0184
3591.75,0.0183
3591.50,0.0182
3591.25,0.0181
3591.00,0.0181
3590.75,0.0180
3590.50,0.0181
3590.25,0.0181
3590.00,0.0182
3589.75,0.0184
3589.50,0.0185
3589.25,0.0186
3589.00,0.0187
3588.75,0.0188
3588.50,0.0189
3588.25,0.0192
3588.00,0.0194
3587.75,0.0196
3587.50,0.0197
3587.25,0.0197
3587.00,0.0197
3586.75,0.0197
3586.50,0.0196
3586.25,0.0195
3586.00,0.0194
3585.75,0.0193
3585.50,0.0191
3585.25,0.0189
3585.00,0.0187
3584.75,0.0186
3584.50,0.0185
3584.25,0.0184
3584.00,0.0183
3583.75,0.0183
3583.50,0.0182
3583.25,0.0182
3583.00,0.0182
3582.75,0.0182
3582.50,0.0182
3582.25,0.0182
3582.00,0.0181
3581.75,0.0181
3581.50,0.0181
3581.25,0.0181
3581.00,0.0182
3580.75,0.0182
3580.50,0.0183
3580.25,0.0184
3580.00,0.0185
3579.75,0.0185
3579.50,0.0186
3579.25,0.0185
3579.00,0.0185
3578.75,0.0184
3578.50,0.0183
3578.25,0.0182
3578.00,0.0181
3577.75,0.0181
3577.50,0.0181
3577.25,0.0180
3577.00,0.0180
3576.75,0.0180
3576.50,0.0180
3576.25,0.0181
3576.00,0.0181
3575.75,0.0182
3575.50,0.0182
3575.25,0.0182
3575.00,0.0183
3574.75,0.0183
3574.50,0.0183
3574.25,0.0183
3574.00,0.0183
3573.75,0.0182
3573.50,0.0182
3573.25,0.0182
3573.00,0.0181
3572.75,0.0181
3572.50,0.0182
3572.25,0.0182
3572.00,0.0182
3571.75,0.0182
3571.50,0.0182
3571.25,0.0181
3571.00,0.0182
3570.75,0.0182
3570.50,0.0183
3570.25,0.0184
3570.00,0.0185
3569.75,0.0185
3569.50,0.0185
3569.25,0.0185
3569.00,0.0185
3568.75,0.0187
3568.50,0.0188
3568.25,0.0191
3568.00,0.0193
3567.75,0.0194
3567.50,0.0196
3567.25,0.0197
3567.00,0.0198
3566.75,0.0199
3566.50,0.0200
3566.25,0.0201
3566.00,0.0201
3565.75,0.0200
3565.50,0.0198
3565.25,0.0195
3565.00,0.0193
3564.75,0.0191
3564.50,0.0189
3564.25,0.0188
3564.00,0.0187
3563.75,0.0187
3563.50,0.0186
3563.25,0.0185
3563.00,0.0185
3562.75,0.0185
3562.50,0.0185
3562.25,0.0185
3562.00,0.0185
3561.75,0.0185
3561.50,0.0185
3561.25,0.0184
3561.00,0.0184
3560.75,0.0184
3560.50,0.0184
3560.25,0.0184
3560.00,0.0184
3559.75,0.0185
3559.50,0.0184
3559.25,0.0184
3559.00,0.0183
3558.75,0.0182
3558.50,0.0182
3558.25,0.0181
3558.00,0.0181
3557.75,0.0180
3557.50,0.0180
3557.25,0.0180
3557.00,0.0180
3556.75,0.0180
3556.50,0.0181
3556.25,0.0181
3556.00,0.0181
3555.75,0.0181
3555.50,0.0181
3555.25,0.0181
3555.00,0.0181
3554.75,0.0181
3554.50,0.0181
3554.25,0.0182
3554.00,0.0182
3553.75,0.0183
3553.50,0.0184
3553.25,0.0185
3553.00,0.0186
3552.75,0.0187
3552.50,0.0187
3552.25,0.0188
3552.00,0.0187
3551.75,0.0186
3551.50,0.0185
3551.25,0.0184
3551.00,0.0184
3550.75,0.0183
3550.50,0.0183
3550.25,0.0182
3550.00,0.0182
3549.75,0.0182
3549.50,0.0182
3549.25,0.0182
3549.00,0.0181
3548.75,0.0181
3548.50,0.0182
3548.25,0.0182
3548.00,0.0183
3547.75,0.0184
3547.50,0.0185
3547.25,0.0186
3547.00,0.0186
3546.75,0.0187
3546.50,0.0188
3546.25,0.0189
3546.00,0.0190
3545.75,0.0190
3545.50,0.0190
3545.25,0.0190
3545.00,0.0190
3544.75,0.0189
3544.50,0.0189
3544.25,0.0188
3544.00,0.0188
3543.75,0.0187
3543.50,0.0186
3543.25,0.0185
3543.00,0.0185
3542.75,0.0185
3542.50,0.0185
3542.25,0.0185
3542.00,0.0185
3541.75,0.0184
3541.50,0.0184
3541.25,0.0183
3541.00,0.0182
3540.75,0.0181
3540.50,0.0181
3540.25,0.0181
3540.00,0.0181
3539.75,0.0181
3539.50,0.0181
3539.25,0.0181
3539.00,0.0181
3538.75,0.0181
3538.50,0.0182
3538.25,0.0182
3538.00,0.0182
3537.75,0.0182
3537.50,0.0182
3537.25,0.0182
3537.00,0.0183
3536.75,0.0184
3536.50,0.0185
3536.25,0.0186
3536.00,0.0187
3535.75,0.0187
3535.50,0.0186
3535.25,0.0185
3535.00,0.0184
3534.75,0.0183
3534.50,0.0182
3534.25,0.0181
3534.00,0.0181
3533.75,0.0181
3533.50,0.0181
3533.25,0.0181
3533.00,0.0181
3532.75,0.0181
3532.50,0.0181
3532.25,0.0181
3532.00,0.0181
3531.75,0.0182
3531.50,0.0183
3531.25,0.0184
3531.00,0.0184
3530.75,0.0185
3530.50,0.0185
3530.25,0.0185
3530.00,0.0184
3529.75,0.0184
3529.50,0.0185
3529.25,0.0185
3529.00,0.0186
3528.75,0.0187
3528.50,0.0187
3528.25,0.0187
3528.00,0.0187
3527.75,0.0186
3527.50,0.0186
3527.25,0.0186
3527.00,0.0186
3526.75,0.0186
3526.50,0.0185
3526.25,0.0185
3526.00,0.0185
3525.75,0.0184
3525.50,0.0184
3525.25,0.0184
3525.00,0.0184
3524.75,0.0185
3524.50,0.0185
3524.25,0.0186
3524.00,0.0187
3523.75,0.0187
3523.50,0.0188
3523.25,0.0189
3523.00,0.0190
3522.75,0.0190
3522.50,0.0189
3522.25,0.0188
3522.00,0.0187
3521.75,0.0186
3521.50,0.0185
3521.25,0.0184
3521.00,0.0184
3520.75,0.0183
3520.50,0.0182
3520.25,0.0182
3520.00,0.0181
3519.75,0.0181
3519.50,0.0182
3519.25,0.0182
3519.00,0.0183
3518.75,0.0183
3518.50,0.0183
3518.25,0.0183
3518.00,0.0183
3517.75,0.0183
3517.50,0.0183
3517.25,0.0183
3517.00,0.0183
3516.75,0.0183
3516.50,0.0183
3516.25,0.0183
3516.00,0.0183
3515.75,0.0182
3515.50,0.0182
3515.25,0.0182
3515.00,0.0182
3514.75,0.0181
3514.50,0.0181
3514.25,0.0181
3514.00,0.0182
3513.75,0.0182
3513.50,0.0182
3513.25,0.0181
3513.00,0.0181
3512.75,0.0180
3512.50,0.0180
3512.25,0.0181
3512.00,0.0181
3511.75,0.0182
3511.50,0.0183
3511.25,0.0183
3511.00,0.0183
3510.75,0.0183
3510.50,0.0184
3510.25,0.0185
3510.00,0.0186
3509.75,0.0187
3509.50,0.0188
3509.25,0.0188
3509.00,0.0187
3508.75,0.0186
3508.50,0.0185
3508.25,0.0184
3508.00,0.0183
3507.75,0.0182
3507.50,0.0182
3507.25,0.0182
3507.00,0.0182
3506.75,0.0182
3506.50,0.0182
3506.25,0.0182
3506.00,0.0182
3505.75,0.0183
3505.50,0.0183
3505.25,0.0183
3505.00,0.0183
3504.75,0.0183
3504.50,0.0183
3504.25,0.0183
3504.00,0.0184
3503.75,0.0184
3503.50,0.0185
3503.25,0.0187
3503.00,0.0187
3502.75,0.0188
3502.50,0.0188
3502.25,0.0188
3502.00,0.0187
3501.75,0.0187
3501.50,0.0186
3501.25,0.0186
3501.00,0.0185
3500.75,0.0184
3500.50,0.0184
3500.25,0.0183
3500.00,0.0183
3499.75,0.0183
3499.50,0.0182
3499.25,0.0182
3499.00,0.0181
3498.75,0.0181
3498.50,0.0181
3498.25,0.0182
3498.00,0.0182
3497.75,0.0183
3497.50,0.0183
3497.25,0.0183
3497.00,0.0183
3496.75,0.0184
3496.50,0.0184
3496.25,0.0184
3496.00,0.0184
3495.75,0.0184
3495.50,0.0183
3495.25,0.0183
3495.00,0.0183
3494.75,0.0183
3494.50,0.0183
3494.25,0.0183
3494.00,0.0183
3493.75,0.0183
3493.50,0.0183
3493.25,0.0183
3493.00,0.0183
3492.75,0.0183
3492.50,0.0183
3492.25,0.0182
3492.00,0.0182
3491.75,0.0182
3491.50,0.0182
3491.25,0.0182
3491.00,0.0182
3490.75,0.0181
3490.50,0.0181
3490.25,0.0181
3490.00,0.0181
3489.75,0.0181
3489.50,0.0181
3489.25,0.0181
3489.00,0.0182
3488.75,0.0182
3488.50,0.0183
3488.25,0.0184
3488.00,0.0184
3487.75,0.0185
3487.50,0.0185
3487.25,0.0185
3487.00,0.0184
3486.75,0.0183
3486.50,0.0182
3486.25,0.0182
3486.00,0.0182
3485.75,0.0182
3485.50,0.0183
3485.25,0.0183
3485.00,0.0184
3484.75,0.0184
3484.50,0.0184
3484.25,0.0184
3484.00,0.0183
3483.75,0.0183
3483.50,0.0182
3483.25,0.0182
3483.00,0.0182
3482.75,0.0182
3482.50,0.0183
3482.25,0.0183
3482.00,0.0184
3481.75,0.0184
3481.50,0.0184
3481.25,0.0184
3481.00,0.0184
3480.75,0.0184
3480.50,0.0184
3480.25,0.0185
3480.00,0.0185
3479.75,0.0185
3479.50,0.0185
3479.25,0.0185
3479.00,0.0184
3478.75,0.0184
3478.50,0.0183
3478.25,0.0182
3478.00,0.0181
3477.75,0.0181
3477.50,0.0181
3477.25,0.0180
3477.00,0.0181
3476.75,0.0181
3476.50,0.0182
3476.25,0.0182
3476.00,0.0183
3475.75,0.0183
3475.50,0.0183
3475.25,0.0183
3475.00,0.0183
3474.75,0.0183
3474.50,0.0182
3474.25,0.0182
3474.00,0.0182
3473.75,0.0182
3473.50,0.0182
3473.25,0.0182
3473.00,0.0182
3472.75,0.0182
3472.50,0.0182
3472.25,0.0181
3472.00,0.0181
3471.75,0.0181
3471.50,0.0181
3471.25,0.0182
3471.00,0.0182
3470.75,0.0183
3470.50,0.0183
3470.25,0.0183
3470.00,0.0183
3469.75,0.0182
3469.50,0.0182
3469.25,0.0182
3469.00,0.0182
3468.75,0.0182
3468.50,0.0182
3468.25,0.0182
3468.00,0.0181
3467.75,0.0181
3467.50,0.0181
3467.25,0.0181
3467.00,0.0182
3466.75,0.0182
3466.50,0.0183
3466.25,0.0184
3466.00,0.0184
3465.75,0.0184
3465.50,0.0184
3465.25,0.0183
3465.00,0.0183
3464.75,0.0182
3464.50,0.0182
3464.25,0.0182
3464.00,0.0183
3463.75,0.0183
3463.50,0.0183
3463.25,0.0184
3463.00,0.0184
3462.75,0.0184
3462.50,0.0184
3462.25,0.0183
3462.00,0.0183
3461.75,0.0183
3461.50,0.0182
3461.25,0.0182
3461.00,0.0181
3460.75,0.0182
3460.50,0.0182
3460.25,0.0182
3460.00,0.0183
3459.75,0.0183
3459.50,0.0183
3459.25,0.0183
3459.00,0.0183
3458.75,0.0183
3458.50,0.0183
3458.25,0.0184
3458.00,0.0184
3457.75,0.0183
3457.50,0.0183
3457.25,0.0183
3457.00,0.0182
3456.75,0.0181
3456.50,0.0181
3456.25,0.0181
3456.00,0.0181
3455.75,0.0181
3455.50,0.0181
3455.25,0.0181
3455.00,0.0181
3454.75,0.0181
3454.50,0.0181
3454.25,0.0181
3454.00,0.0182
3453.75,0.0182
3453.50,0.0183
3453.25,0.0183
3453.00,0.0183
3452.75,0.0182
3452.50,0.0182
3452.25,0.0182
3452.00,0.0182
3451.75,0.0182
3451.50,0.0182
3451.25,0.0182
3451.00,0.0182
3450.75,0.0182
3450.50,0.0183
3450.25,0.0183
3450.00,0.0183
3449.75,0.0183
3449.50,0.0183
3449.25,0.0183
3449.00,0.0183
3448.75,0.0184
3448.50,0.0184
3448.25,0.0184
3448.00,0.0185
3447.75,0.0185
3447.50,0.0186
3447.25,0.0186
3447.00,0.0187
3446.75,0.0187
3446.50,0.0186
3446.25,0.0185
3446.00,0.0184
3445.75,0.0183
3445.50,0.0182
3445.25,0.0182
3445.00,0.0182
3444.75,0.0183
3444.50,0.0183
3444.25,0.0183
3444.00,0.0183
3443.75,0.0182
3443.50,0.0182
3443.25,0.0182
3443.00,0.0183
3442.75,0.0183
3442.50,0.0184
3442.25,0.0184
3442.00,0.0184
3441.75,0.0184
3441.50,0.0183
3441.25,0.0183
3441.00,0.0182
3440.75,0.0182
3440.50,0.0182
3440.25,0.0183
3440.00,0.0183
3439.75,0.0182
3439.50,0.0182
3439.25,0.0182
3439.00,0.0181
3438.75,0.0181
3438.50,0.0181
3438.25,0.0181
3438.00,0.0182
3437.75,0.0182
3437.50,0.0182
3437.25,0.0182
3437.00,0.0182
3436.75,0.0182
3436.50,0.0182
3436.25,0.0182
3436.00,0.0182
3435.75,0.0182
3435.50,0.0182
3435.25,0.0182
3435.00,0.0182
3434.75,0.0182
3434.50,0.0182
3434.25,0.0183
3434.00,0.0183
3433.75,0.0183
3433.50,0.0182
3433.25,0.0182
3433.00,0.0182
3432.75,0.0182
3432.50,0.0182
3432.25,0.0182
3432.00,0.0182
3431.75,0.0182
3431.50,0.0182
3431.25,0.0182
3431.00,0.0182
3430.75,0.0182
3430.50,0.0182
3430.25,0.0182
3430.00,0.0182
3429.75,0.0182
3429.50,0.0182
3429.25,0.0182
3429.00,0.0181
3428.75,0.0181
3428.50,0.0181
3428.25,0.0182
3428.00,0.0182
3427.75,0.0182
3427.50,0.0182
3427.25,0.0182
3427.00,0.0182
3426.75,0.0182
3426.50,0.0181
3426.25,0.0181
3426.00,0.0181
3425.75,0.0181
3425.50,0.0181
3425.25,0.0180
3425.00,0.0181
3424.75,0.0181
3424.50,0.0182
3424.25,0.0182
3424.00,0.0182
3423.75,0.0182
3423.50,0.0182
3423.25,0.0182
3423.00,0.0182
3422.75,0.0182
3422.50,0.0182
3422.25,0.0182
3422.00,0.0182
3421.75,0.0182
3421.50,0.0183
3421.25,0.0183
3421.00,0.0184
3420.75,0.0184
3420.50,0.0184
3420.25,0.0184
3420.00,0.0183
3419.75,0.0183
3419.50,0.0183
3419.25,0.0183
3419.00,0.0183
3418.75,0.0183
3418.50,0.0183
3418.25,0.0183
3418.00,0.0183
3417.75,0.0183
3417.50,0.0183
3417.25,0.0182
3417.00,0.0182
3416.75,0.0182
3416.50,0.0182
3416.25,0.0181
3416.00,0.0181
3415.75,0.0181
3415.50,0.0180
3415.25,0.0180
3415.00,0.0181
3414.75,0.0181
3414.50,0.0182
3414.25,0.0182
3414.00,0.0182
3413.75,0.0182
3413.50,0.0183
3413.25,0.0183
3413.00,0.0183
3412.75,0.0183
3412.50,0.0183
3412.25,0.0182
3412.00,0.0182
3411.75,0.0182
3411.50,0.0181
3411.25,0.0181
3411.00,0.0181
3410.75,0.0181
3410.50,0.0181
3410.25,0.0181
3410.00,0.0181
3409.75,0.0182
3409.50,0.0182
3409.25,0.0182
3409.00,0.0183
3408.75,0.0183
3408.50,0.0184
3408.25,0.0183
3408.00,0.0183
3407.75,0.0182
3407.50,0.0181
3407.25,0.0181
3407.00,0.0181
3406.75,0.0181
3406.50,0.0182
3406.25,0.0182
3406.00,0.0182
3405.75,0.0182
3405.50,0.0182
3405.25,0.0182
3405.00,0.0182
3404.75,0.0182
3404.50,0.0182
3404.25,0.0181
3404.00,0.0181
3403.75,0.0181
3403.50,0.0181
3403.25,0.0181
3403.00,0.0181
3402.75,0.0181
3402.50,0.0182
3402.25,0.0182
3402.00,0.0182
3401.75,0.0182
3401.50,0.0182
3401.25,0.0182
3401.00,0.0182
3400.75,0.0182
3400.50,0.0182
3400.25,0.0182
3400.00,0.0182
3399.75,0.0181
3399.50,0.0181
3399.25,0.0181
3399.00,0.0181
3398.75,0.0181
3398.50,0.0182
3398.25,0.0182
3398.00,0.0182
3397.75,0.0183
3397.50,0.0182
3397.25,0.0182
3397.00,0.0182
3396.75,0.0182
3396.50,0.0182
3396.25,0.0182
3396.00,0.0182
3395.75,0.0183
3395.50,0.0183
3395.25,0.0183
3395.00,0.0183
3394.75,0.0183
3394.50,0.0183
3394.25,0.0182
3394.00,0.0182
3393.75,0.0182
3393.50,0.0182
3393.25,0.0183
3393.00,0.0183
3392.75,0.0183
3392.50,0.0183
3392.25,0.0183
3392.00,0.0184
3391.75,0.0184
3391.50,0.0185
3391.25,0.0184
3391.00,0.0183
3390.75,0.0182
3390.50,0.0182
3390.25,0.0182
3390.00,0.0182
3389.75,0.0182
3389.50,0.0182
3389.25,0.0181
3389.00,0.0181
3388.75,0.0181
3388.50,0.0181
3388.25,0.0181
3388.00,0.0181
3387.75,0.0181
3387.50,0.0181
3387.25,0.0182
3387.00,0.0182
3386.75,0.0183
3386.50,0.0182
3386.25,0.0182
3386.00,0.0181
3385.75,0.0181
3385.50,0.0181
3385.25,0.0181
3385.00,0.0181
3384.75,0.0182
3384.50,0.0183
3384.25,0.0183
3384.00,0.0184
3383.75,0.0184
3383.50,0.0183
3383.25,0.0182
3383.00,0.0181
3382.75,0.0181
3382.50,0.0181
3382.25,0.0181
3382.00,0.0181
3381.75,0.0182
3381.50,0.0182
3381.25,0.0183
3381.00,0.0183
3380.75,0.0183
3380.50,0.0183
3380.25,0.0182
3380.00,0.0182
3379.75,0.0182
3379.50,0.0182
3379.25,0.0182
3379.00,0.0183
3378.75,0.0183
3378.50,0.0183
3378.25,0.0183
3378.00,0.0183
3377.75,0.0183
3377.50,0.0183
3377.25,0.0182
3377.00,0.0182
3376.75,0.0182
3376.50,0.0182
3376.25,0.0182
3376.00,0.0182
3375.75,0.0182
3375.50,0.0181
3375.25,0.0181
3375.00,0.0181
3374.75,0.0181
3374.50,0.0181
3374.25,0.0181
3374.00,0.0181
3373.75,0.0181
3373.50,0.0181
3373.25,0.0181
3373.00,0.0182
3372.75,0.0182
3372.50,0.0182
3372.25,0.0182
3372.00,0.0182
3371.75,0.0182
3371.50,0.0183
3371.25,0.0183
3371.00,0.0182
3370.75,0.0183
3370.50,0.0183
3370.25,0.0183
3370.00,0.0183
3369.75,0.0183
3369.50,0.0183
3369.25,0.0182
3369.00,0.0181
3368.75,0.0181
3368.50,0.0181
3368.25,0.0182
3368.00,0.0182
3367.75,0.0182
3367.50,0.0182
3367.25,0.0182
3367.00,0.0182
3366.75,0.0182
3366.50,0.0182
3366.25,0.0182
3366.00,0.0183
3365.75,0.0183
3365.50,0.0183
3365.25,0.0182
3365.00,0.0182
3364.75,0.0182
3364.50,0.0182
3364.25,0.0182
3364.00,0.0182
3363.75,0.0182
3363.50,0.0181
3363.25,0.0181
3363.00,0.0181
3362.75,0.0182
3362.50,0.0182
3362.25,0.0182
3362.00,0.0182
3361.75,0.0182
3361.50,0.0181
3361.25,0.0181
3361.00,0.0181
3360.75,0.0181
3360.50,0.0181
3360.25,0.0181
3360.00,0.0182
3359.75,0.0182
3359.50,0.0182
3359.25,0.0182
3359.00,0.0182
3358.75,0.0182
3358.50,0.0182
3358.25,0.0182
3358.00,0.0183
3357.75,0.0183
3357.50,0.0183
3357.25,0.0184
3357.00,0.0184
3356.75,0.0183
3356.50,0.0183
3356.25,0.0183
3356.00,0.0182
3355.75,0.0182
3355.50,0.0182
3355.25,0.0182
3355.00,0.0182
3354.75,0.0182
3354.50,0.0182
3354.25,0.0182
3354.00,0.0181
3353.75,0.0181
3353.50,0.0182
3353.25,0.0182
3353.00,0.0182
3352.75,0.0182
3352.50,0.0181
3352.25,0.0181
3352.00,0.0181
3351.75,0.0181
3351.50,0.0181
3351.25,0.0181
3351.00,0.0181
3350.75,0.0181
3350.50,0.0181
3350.25,0.0181
3350.00,0.0182
3349.75,0.0182
3349.50,0.0182
3349.25,0.0182
3349.00,0.0182
3348.75,0.0182
3348.50,0.0181
3348.25,0.0181
3348.00,0.0181
3347.75,0.0181
3347.50,0.0181
3347.25,0.0181
3347.00,0.0181
3346.75,0.0181
3346.50,0.0182
3346.25,0.0182
3346.00,0.0182
3345.75,0.0182
3345.50,0.0182
3345.25,0.0182
3345.00,0.0181
3344.75,0.0181
3344.50,0.0180
3344.25,0.0180
3344.00,0.0180
3343.75,0.0180
3343.50,0.0180
3343.25,0.0180
3343.00,0.0180
3342.75,0.0180
3342.50,0.0181
3342.25,0.0181
3342.00,0.0181
3341.75,0.0182
3341.50,0.0182
3341.25,0.0182
3341.00,0.0182
3340.75,0.0181
3340.50,0.0181
3340.25,0.0181
3340.00,0.0181
3339.75,0.0182
3339.50,0.0182
3339.25,0.0182
3339.00,0.0182
3338.75,0.0182
3338.50,0.0182
3338.25,0.0182
3338.00,0.0182
3337.75,0.0182
3337.50,0.0182
3337.25,0.0183
3337.00,0.0183
3336.75,0.0183
3336.50,0.0183
3336.25,0.0183
3336.00,0.0183
3335.75,0.0183
3335.50,0.0182
3335.25,0.0182
3335.00,0.0181
3334.75,0.0181
3334.50,0.0181
3334.25,0.0182
3334.00,0.0182
3333.75,0.0182
3333.50,0.0182
3333.25,0.0182
3333.00,0.0182
3332.75,0.0182
3332.50,0.0182
3332.25,0.0182
3332.00,0.0182
3331.75,0.0182
3331.50,0.0182
3331.25,0.0182
3331.00,0.0182
3330.75,0.0182
3330.50,0.0182
3330.25,0.0182
3330.00,0.0182
3329.75,0.0182
3329.50,0.0183
3329.25,0.0183
3329.00,0.0182
3328.75,0.0182
3328.50,0.0182
3328.25,0.0182
3328.00,0.0182
3327.75,0.0182
3327.50,0.0182
3327.25,0.0183
3327.00,0.0183
3326.75,0.0183
3326.50,0.0183
3326.25,0.0182
3326.00,0.0182
3325.75,0.0182
3325.50,0.0182
3325.25,0.0182
3325.00,0.0182
3324.75,0.0183
3324.50,0.0183
3324.25,0.0183
3324.00,0.0183
3323.75,0.0182
3323.50,0.0181
3323.25,0.0181
3323.00,0.0181
3322.75,0.0182
3322.50,0.0182
3322.25,0.0182
3322.00,0.0182
3321.75,0.0182
3321.50,0.0182
3321.25,0.0181
3321.00,0.0181
3320.75,0.0181
3320.50,0.0181
3320.25,0.0181
3320.00,0.0181
3319.75,0.0180
3319.50,0.0180
3319.25,0.0180
3319.00,0.0180
3318.75,0.0181
3318.50,0.0181
3318.25,0.0182
3318.00,0.0182
3317.75,0.0182
3317.50,0.0182
3317.25,0.0182
3317.00,0.0181
3316.75,0.0181
3316.50,0.0181
3316.25,0.0181
3316.00,0.0180
3315.75,0.0180
3315.50,0.0180
3315.25,0.0180
3315.00,0.0180
3314.75,0.0181
3314.50,0.0181
3314.25,0.0182
3314.00,0.0182
3313.75,0.0182
3313.50,0.0182
3313.25,0.0181
3313.00,0.0181
3312.75,0.0181
3312.50,0.0181
3312.25,0.0181
3312.00,0.0181
3311.75,0.0181
3311.50,0.0181
3311.25,0.0182
3311.00,0.0182
3310.75,0.0182
3310.50,0.0183
3310.25,0.0183
3310.00,0.0183
3309.75,0.0183
3309.50,0.0183
3309.25,0.0183
3309.00,0.0183
3308.75,0.0183
3308.50,0.0183
3308.25,0.0183
3308.00,0.0182
3307.75,0.0182
3307.50,0.0182
3307.25,0.0181
3307.00,0.0181
3306.75,0.0181
3306.50,0.0182
3306.25,0.0182
3306.00,0.0182
3305.75,0.0182
3305.50,0.0182
3305.25,0.0182
3305.00,0.0182
3304.75,0.0182
3304.50,0.0182
3304.25,0.0181
3304.00,0.0181
3303.75,0.0181
3303.50,0.0181
3303.25,0.0181
3303.00,0.0181
3302.75,0.0181
3302.50,0.0181
3302.25,0.0181
3302.00,0.0181
3301.75,0.0181
3301.50,0.0181
3301.25,0.0182
3301.00,0.0182
3300.75,0.0182
3300.50,0.0182
3300.25,0.0182
3300.00,0.0182
3299.75,0.0182
3299.50,0.0181
3299.25,0.0181
3299.00,0.0181
3298.75,0.0181
3298.50,0.0181
3298.25,0.0181
3298.00,0.0181
3297.75,0.0182
3297.50,0.0182
3297.25,0.0183
3297.00,0.0183
3296.75,0.0183
3296.50,0.0183
3296.25,0.0182
3296.00,0.0182
3295.75,0.0181
3295.50,0.0181
3295.25,0.0180
3295.00,0.0180
3294.75,0.0180
3294.50,0.0180
3294.25,0.0180
3294.00,0.0180
3293.75,0.0180
3293.50,0.0181
3293.25,0.0181
3293.00,0.0181
3292.75,0.0181
3292.50,0.0181
3292.25,0.0182
3292.00,0.0182
3291.75,0.0182
3291.50,0.0182
3291.25,0.0181
3291.00,0.0181
3290.75,0.0181
3290.50,0.0181
3290.25,0.0181
3290.00,0.0181
3289.75,0.0181
3289.50,0.0182
3289.25,0.0182
3289.00,0.0182
3288.75,0.0182
3288.50,0.0182
3288.25,0.0182
3288.00,0.0182
3287.75,0.0182
3287.50,0.0183
3287.25,0.0183
3287.00,0.0183
3286.75,0.0182
3286.50,0.0182
3286.25,0.0181
3286.00,0.0181
3285.75,0.0180
3285.50,0.0181
3285.25,0.0181
3285.00,0.0181
3284.75,0.0181
3284.50,0.0181
3284.25,0.0181
3284.00,0.0181
3283.75,0.0180
3283.50,0.0181
3283.25,0.0181
3283.00,0.0181
3282.75,0.0182
3282.50,0.0182
3282.25,0.0182
3282.00,0.0181
3281.75,0.0181
3281.50,0.0181
3281.25,0.0181
3281.00,0.0181
3280.75,0.0181
3280.50,0.0181
3280.25,0.0181
3280.00,0.0181
3279.75,0.0181
3279.50,0.0181
3279.25,0.0180
3279.00,0.0180
3278.75,0.0181
3278.50,0.0181
3278.25,0.0181
3278.00,0.0182
3277.75,0.0181
3277.50,0.0181
3277.25,0.0181
3277.00,0.0181
3276.75,0.0181
3276.50,0.0182
3276.25,0.0182
3276.00,0.0182
3275.75,0.0182
3275.50,0.0182
3275.25,0.0183
3275.00,0.0183
3274.75,0.0183
3274.50,0.0183
3274.25,0.0183
3274.00,0.0183
3273.75,0.0183
3273.50,0.0182
3273.25,0.0182
3273.00,0.0181
3272.75,0.0181
3272.50,0.0180
3272.25,0.0181
3272.00,0.0181
3271.75,0.0182
3271.50,0.0182
3271.25,0.0182
3271.00,0.0182
3270.75,0.0182
3270.50,0.0182
3270.25,0.0182
3270.00,0.0182
3269.75,0.0182
3269.50,0.0182
3269.25,0.0181
3269.00,0.0180
3268.75,0.0180
3268.50,0.0179
3268.25,0.0179
3268.00,0.0179
3267.75,0.0180
3267.50,0.0180
3267.25,0.0181
3267.00,0.0181
3266.75,0.0182
3266.50,0.0182
3266.25,0.0182
3266.00,0.0182
3265.75,0.0182
3265.50,0.0182
3265.25,0.0182
3265.00,0.0182
3264.75,0.0182
3264.50,0.0182
3264.25,0.0181
3264.00,0.0181
3263.75,0.0181
3263.50,0.0181
3263.25,0.0182
3263.00,0.0182
3262.75,0.0181
3262.50,0.0181
3262.25,0.0180
3262.00,0.0180
3261.75,0.0180
3261.50,0.0180
3261.25,0.0181
3261.00,0.0181
3260.75,0.0181
3260.50,0.0181
3260.25,0.0181
3260.00,0.0181
3259.75,0.0181
3259.50,0.0182
3259.25,0.0182
3259.00,0.0183
3258.75,0.0183
3258.50,0.0182
3258.25,0.0182
3258.00,0.0182
3257.75,0.0181
3257.50,0.0181
3257.25,0.0181
3257.00,0.0181
3256.75,0.0181
3256.50,0.0181
3256.25,0.0181
3256.00,0.0181
3255.75,0.0181
3255.50,0.0181
3255.25,0.0181
3255.00,0.0181
3254.75,0.0182
3254.50,0.0182
3254.25,0.0183
3254.00,0.0183
3253.75,0.0183
3253.50,0.0183
3253.25,0.0183
3253.00,0.0182
3252.75,0.0181
3252.50,0.0181
3252.25,0.0181
3252.00,0.0181
3251.75,0.0181
3251.50,0.0181
3251.25,0.0181
3251.00,0.0181
3250.75,0.0181
3250.50,0.0181
3250.25,0.0180
3250.00,0.0180
3249.75,0.0180
3249.50,0.0180
3249.25,0.0180
3249.00,0.0181
3248.75,0.0181
3248.50,0.0181
3248.25,0.0181
3248.00,0.0181
3247.75,0.0181
3247.50,0.0181
3247.25,0.0181
3247.00,0.0181
3246.75,0.0181
3246.50,0.0180
3246.25,0.0180
3246.00,0.0180
3245.75,0.0180
3245.50,0.0180
3245.25,0.0180
3245.00,0.0181
3244.75,0.0181
3244.50,0.0182
3244.25,0.0182
3244.00,0.0182
3243.75,0.0182
3243.50,0.0181
3243.25,0.0181
3243.00,0.0180
3242.75,0.0179
3242.50,0.0179
3242.25,0.0179
3242.00,0.0180
3241.75,0.0180
3241.50,0.0181
3241.25,0.0181
3241.00,0.0181
3240.75,0.0182
3240.50,0.0182
3240.25,0.0182
3240.00,0.0183
3239.75,0.0182
3239.50,0.0182
3239.25,0.0181
3239.00,0.0181
3238.75,0.0180
3238.50,0.0180
3238.25,0.0180
3238.00,0.0181
3237.75,0.0180
3237.50,0.0180
3237.25,0.0179
3237.00,0.0179
3236.75,0.0179
3236.50,0.0180
3236.25,0.0180
3236.00,0.0180
3235.75,0.0180
3235.50,0.0180
3235.25,0.0180
3235.00,0.0180
3234.75,0.0181
3234.50,0.0181
3234.25,0.0181
3234.00,0.0181
3233.75,0.0181
3233.50,0.0180
3233.25,0.0180
3233.00,0.0180
3232.75,0.0180
3232.50,0.0180
3232.25,0.0180
3232.00,0.0180
3231.75,0.0181
3231.50,0.0181
3231.25,0.0181
3231.00,0.0182
3230.75,0.0182
3230.50,0.0182
3230.25,0.0181
3230.00,0.0180
3229.75,0.0180
3229.50,0.0180
3229.25,0.0180
3229.00,0.0180
3228.75,0.0180
3228.50,0.0181
3228.25,0.0181
3228.00,0.0181
3227.75,0.0181
3227.50,0.0181
3227.25,0.0181
3227.00,0.0181
3226.75,0.0180
3226.50,0.0180
3226.25,0.0180
3226.00,0.0179
3225.75,0.0179
3225.50,0.0180
3225.25,0.0180
3225.00,0.0181
3224.75,0.0182
3224.50,0.0183
3224.25,0.0183
3224.00,0.0183
3223.75,0.0182
3223.50,0.0181
3223.25,0.0180
3223.00,0.0180
3222.75,0.0180
3222.50,0.0180
3222.25,0.0181
3222.00,0.0181
3221.75,0.0181
3221.50,0.0181
3221.25,0.0181
3221.00,0.0181
3220.75,0.0181
3220.50,0.0181
3220.25,0.0181
3220.00,0.0181
3219.75,0.0181
3219.50,0.0181
3219.25,0.0181
3219.00,0.0182
3218.75,0.0182
3218.50,0.0182
3218.25,0.0181
3218.00,0.0181
3217.75,0.0181
3217.50,0.0181
3217.25,0.0181
3217.00,0.0181
3216.75,0.0181
3216.50,0.0182
3216.25,0.0182
3216.00,0.0181
3215.75,0.0181
3215.50,0.0181
3215.25,0.0181
3215.00,0.0180
3214.75,0.0181
3214.50,0.0181
3214.25,0.0182
3214.00,0.0182
3213.75,0.0182
3213.50,0.0182
3213.25,0.0182
3213.00,0.0182
3212.75,0.0182
3212.50,0.0181
3212.25,0.0181
3212.00,0.0181
3211.75,0.0181
3211.50,0.0181
3211.25,0.0181
3211.00,0.0181
3210.75,0.0181
3210.50,0.0181
3210.25,0.0181
3210.00,0.0181
3209.75,0.0181
3209.50,0.0181
3209.25,0.0181
3209.00,0.0181
3208.75,0.0181
3208.50,0.0181
3208.25,0.0180
3208.00,0.0180
3207.75,0.0180
3207.50,0.0180
3207.25,0.0180
3207.00,0.0180
3206.75,0.0180
3206.50,0.0181
3206.25,0.0181
3206.00,0.0181
3205.75,0.0181
3205.50,0.0181
3205.25,0.0181
3205.00,0.0181
3204.75,0.0181
3204.50,0.0180
3204.25,0.0180
3204.00,0.0180
3203.75,0.0180
3203.50,0.0180
3203.25,0.0180
3203.00,0.0180
3202.75,0.0180
3202.50,0.0180
3202.25,0.0180
3202.00,0.0180
3201.75,0.0180
3201.50,0.0180
3201.25,0.0180
3201.00,0.0180
3200.75,0.0180
3200.50,0.0181
3200.25,0.0181
3200.00,0.0181
3199.75,0.0181
3199.50,0.0181
3199.25,0.0180
3199.00,0.0180
3198.75,0.0180
3198.50,0.0180
3198.25,0.0181
3198.00,0.0182
3197.75,0.0182
3197.50,0.0182
3197.25,0.0181
3197.00,0.0181
3196.75,0.0181
3196.50,0.0181
3196.25,0.0182
3196.00,0.0182
3195.75,0.0182
3195.50,0.0182
3195.25,0.0182
3195.00,0.0182
3194.75,0.0182
3194.50,0.0182
3194.25,0.0182
3194.00,0.0181
3193.75,0.0181
3193.50,0.0181
3193.25,0.0181
3193.00,0.0181
3192.75,0.0181
3192.50,0.0180
3192.25,0.0180
3192.00,0.0180
3191.75,0.0180
3191.50,0.0179
3191.25,0.0179
3191.00,0.0179
3190.75,0.0179
3190.50,0.0179
3190.25,0.0180
3190.00,0.0180
3189.75,0.0181
3189.50,0.0181
3189.25,0.0181
3189.00,0.0182
3188.75,0.0182
3188.50,0.0182
3188.25,0.0182
3188.00,0.0182
3187.75,0.0181
3187.50,0.0181
3187.25,0.0180
3187.00,0.0180
3186.75,0.0180
3186.50,0.0180
3186.25,0.0180
3186.00,0.0180
3185.75,0.0181
3185.50,0.0181
3185.25,0.0182
3185.00,0.0182
3184.75,0.0183
3184.50,0.0182
3184.25,0.0182
3184.00,0.0181
3183.75,0.0181
3183.50,0.0181
3183.25,0.0181
3183.00,0.0181
3182.75,0.0181
3182.50,0.0181
3182.25,0.0180
3182.00,0.0180
3181.75,0.0181
3181.50,0.0182
3181.25,0.0182
3181.00,0.0183
3180.75,0.0183
3180.50,0.0182
3180.25,0.0181
3180.00,0.0180
3179.75,0.0180
3179.50,0.0180
3179.25,0.0181
3179.00,0.0181
3178.75,0.0182
3178.50,0.0182
3178.25,0.0182
3178.00,0.0182
3177.75,0.0182
3177.50,0.0182
3177.25,0.0181
3177.00,0.0181
3176.75,0.0181
3176.50,0.0181
3176.25,0.0181
3176.00,0.0181
3175.75,0.0181
3175.50,0.0181
3175.25,0.0181
3175.00,0.0181
3174.75,0.0181
3174.50,0.0181
3174.25,0.0181
3174.00,0.0181
3173.75,0.0181
3173.50,0.0181
3173.25,0.0180
3173.00,0.0180
3172.75,0.0181
3172.50,0.0181
3172.25,0.0181
3172.00,0.0181
3171.75,0.0181
3171.50,0.0181
3171.25,0.0181
3171.00,0.0181
3170.75,0.0182
3170.50,0.0182
3170.25,0.0182
3170.00,0.0181
3169.75,0.0181
3169.50,0.0180
3169.25,0.0180
3169.00,0.0180
3168.75,0.0181
3168.50,0.0181
3168.25,0.0181
3168.00,0.0181
3167.75,0.0181
3167.50,0.0181
3167.25,0.0181
3167.00,0.0182
3166.75,0.0182
3166.50,0.0181
3166.25,0.0181
3166.00,0.0181
3165.75,0.0181
3165.50,0.0181
3165.25,0.0181
3165.00,0.0182
3164.75,0.0182
3164.50,0.0182
3164.25,0.0182
3164.00,0.0181
3163.75,0.0181
3163.50,0.0181
3163.25,0.0181
3163.00,0.0181
3162.75,0.0181
3162.50,0.0181
3162.25,0.0181
3162.00,0.0181
3161.75,0.0182
3161.50,0.0181
3161.25,0.0181
3161.00,0.0181
3160.75,0.0181
3160.50,0.0181
3160.25,0.0181
3160.00,0.0181
3159.75,0.0182
3159.50,0.0182
3159.25,0.0182
3159.00,0.0181
3158.75,0.0181
3158.50,0.0181
3158.25,0.0180
3158.00,0.0180
3157.75,0.0181
3157.50,0.0182
3157.25,0.0183
3157.00,0.0183
3156.75,0.0183
3156.50,0.0182
3156.25,0.0182
3156.00,0.0181
3155.75,0.0181
3155.50,0.0181
3155.25,0.0182
3155.00,0.0182
3154.75,0.0182
3154.50,0.0182
3154.25,0.0182
3154.00,0.0181
3153.75,0.0181
3153.50,0.0181
3153.25,0.0181
3153.00,0.0181
3152.75,0.0181
3152.50,0.0181
3152.25,0.0181
3152.00,0.0181
3151.75,0.0181
3151.50,0.0181
3151.25,0.0181
3151.00,0.0181
3150.75,0.0181
3150.50,0.0181
3150.25,0.0182
3150.00,0.0182
3149.75,0.0182
3149.50,0.0182
3149.25,0.0182
3149.00,0.0182
3148.75,0.0182
3148.50,0.0181
3148.25,0.0181
3148.00,0.0181
3147.75,0.0181
3147.50,0.0181
3147.25,0.0181
3147.00,0.0182
3146.75,0.0183
3146.50,0.0183
3146.25,0.0183
3146.00,0.0183
3145.75,0.0182
3145.50,0.0182
3145.25,0.0182
3145.00,0.0181
3144.75,0.0181
3144.50,0.0182
3144.25,0.0182
3144.00,0.0182
3143.75,0.0182
3143.50,0.0182
3143.25,0.0182
3143.00,0.0182
3142.75,0.0182
3142.50,0.0182
3142.25,0.0182
3142.00,0.0183
3141.75,0.0183
3141.50,0.0183
3141.25,0.0183
3141.00,0.0183
3140.75,0.0182
3140.50,0.0182
3140.25,0.0183
3140.00,0.0183
3139.75,0.0184
3139.50,0.0184
3139.25,0.0184
3139.00,0.0184
3138.75,0.0183
3138.50,0.0183
3138.25,0.0183
3138.00,0.0183
3137.75,0.0184
3137.50,0.0184
3137.25,0.0184
3137.00,0.0184
3136.75,0.0184
3136.50,0.0183
3136.25,0.0183
3136.00,0.0183
3135.75,0.0183
3135.50,0.0183
3135.25,0.0183
3135.00,0.0183
3134.75,0.0183
3134.50,0.0182
3134.25,0.0182
3134.00,0.0182
3133.75,0.0182
3133.50,0.0183
3133.25,0.0183
3133.00,0.0183
3132.75,0.0184
3132.50,0.0184
3132.25,0.0184
3132.00,0.0184
3131.75,0.0184
3131.50,0.0184
3131.25,0.0184
3131.00,0.0184
3130.75,0.0183
3130.50,0.0183
3130.25,0.0182
3130.00,0.0182
3129.75,0.0182
3129.50,0.0182
3129.25,0.0182
3129.00,0.0183
3128.75,0.0183
3128.50,0.0183
3128.25,0.0183
3128.00,0.0183
3127.75,0.0183
3127.50,0.0183
3127.25,0.0184
3127.00,0.0184
3126.75,0.0185
3126.50,0.0185
3126.25,0.0185
3126.00,0.0185
3125.75,0.0185
3125.50,0.0184
3125.25,0.0184
3125.00,0.0184
3124.75,0.0184
3124.50,0.0183
3124.25,0.0183
3124.00,0.0183
3123.75,0.0183
3123.50,0.0183
3123.25,0.0183
3123.00,0.0183
3122.75,0.0183
3122.50,0.0184
3122.25,0.0184
3122.00,0.0184
3121.75,0.0184
3121.50,0.0184
3121.25,0.0184
3121.00,0.0183
3120.75,0.0183
3120.50,0.0183
3120.25,0.0184
3120.00,0.0184
3119.75,0.0184
3119.50,0.0185
3119.25,0.0185
3119.00,0.0185
3118.75,0.0185
3118.50,0.0185
3118.25,0.0186
3118.00,0.0186
3117.75,0.0186
3117.50,0.0186
3117.25,0.0185
3117.00,0.0185
3116.75,0.0185
3116.50,0.0185
3116.25,0.0185
3116.00,0.0185
3115.75,0.0185
3115.50,0.0185
3115.25,0.0185
3115.00,0.0186
3114.75,0.0186
3114.50,0.0186
3114.25,0.0186
3114.00,0.0186
3113.75,0.0186
3113.50,0.0185
3113.25,0.0185
3113.00,0.0185
3112.75,0.0185
3112.50,0.0184
3112.25,0.0184
3112.00,0.0184
3111.75,0.0184
3111.50,0.0184
3111.25,0.0184
3111.00,0.0184
3110.75,0.0185
3110.50,0.0185
3110.25,0.0186
3110.00,0.0186
3109.75,0.0186
3109.50,0.0185
3109.25,0.0185
3109.00,0.0185
3108.75,0.0185
3108.50,0.0185
3108.25,0.0185
3108.00,0.0185
3107.75,0.0185
3107.50,0.0185
3107.25,0.0185
3107.00,0.0185
3106.75,0.0185
3106.50,0.0185
3106.25,0.0185
3106.00,0.0185
3105.75,0.0185
3105.50,0.0185
3105.25,0.0185
3105.00,0.0184
3104.75,0.0184
3104.50,0.0184
3104.25,0.0184
3104.00,0.0184
3103.75,0.0184
3103.50,0.0184
3103.25,0.0185
3103.00,0.0185
3102.75,0.0185
3102.50,0.0185
3102.25,0.0185
3102.00,0.0185
3101.75,0.0185
3101.50,0.0185
3101.25,0.0185
3101.00,0.0185
3100.75,0.0185
3100.50,0.0185
3100.25,0.0185
3100.00,0.0184
3099.75,0.0185
3099.50,0.0185
3099.25,0.0185
3099.00,0.0185
3098.75,0.0185
3098.50,0.0185
3098.25,0.0185
3098.00,0.0185
3097.75,0.0186
3097.50,0.0186
3097.25,0.0186
3097.00,0.0185
3096.75,0.0185
3096.50,0.0185
3096.25,0.0185
3096.00,0.0185
3095.75,0.0185
3095.50,0.0185
3095.25,0.0185
3095.00,0.0185
3094.75,0.0185
3094.50,0.0185
3094.25,0.0185
3094.00,0.0185
3093.75,0.0185
3093.50,0.0185
3093.25,0.0186
3093.00,0.0186
3092.75,0.0186
3092.50,0.0186
3092.25,0.0186
3092.00,0.0185
3091.75,0.0185
3091.50,0.0184
3091.25,0.0184
3091.00,0.0184
3090.75,0.0184
3090.50,0.0184
3090.25,0.0185
3090.00,0.0185
3089.75,0.0185
3089.50,0.0185
3089.25,0.0185
3089.00,0.0185
3088.75,0.0185
3088.50,0.0185
3088.25,0.0185
3088.00,0.0185
3087.75,0.0185
3087.50,0.0185
3087.25,0.0185
3087.00,0.0185
3086.75,0.0185
3086.50,0.0185
3086.25,0.0185
3086.00,0.0185
3085.75,0.0185
3085.50,0.0185
3085.25,0.0185
3085.00,0.0184
3084.75,0.0184
3084.50,0.0183
3084.25,0.0183
3084.00,0.0184
3083.75,0.0184
3083.50,0.0185
3083.25,0.0185
3083.00,0.0185
3082.75,0.0185
3082.50,0.0185
3082.25,0.0184
3082.00,0.0184
3081.75,0.0184
3081.50,0.0184
3081.25,0.0184
3081.00,0.0185
3080.75,0.0185
3080.50,0.0186
3080.25,0.0186
3080.00,0.0187
3079.75,0.0187
3079.50,0.0187
3079.25,0.0187
3079.00,0.0187
3078.75,0.0186
3078.50,0.0186
3078.25,0.0186
3078.00,0.0186
3077.75,0.0186
3077.50,0.0186
3077.25,0.0186
3077.00,0.0186
3076.75,0.0185
3076.50,0.0185
3076.25,0.0185
3076.00,0.0184
3075.75,0.0185
3075.50,0.0185
3075.25,0.0185
3075.00,0.0185
3074.75,0.0185
3074.50,0.0185
3074.25,0.0185
3074.00,0.0185
3073.75,0.0186
3073.50,0.0186
3073.25,0.0186
3073.00,0.0186
3072.75,0.0186
3072.50,0.0186
3072.25,0.0186
3072.00,0.0186
3071.75,0.0185
3071.50,0.0185
3071.25,0.0186
3071.00,0.0186
3070.75,0.0186
3070.50,0.0186
3070.25,0.0186
3070.00,0.0186
3069.75,0.0186
3069.50,0.0186
3069.25,0.0186
3069.00,0.0186
3068.75,0.0185
3068.50,0.0186
3068.25,0.0186
3068.00,0.0186
3067.75,0.0186
3067.50,0.0186
3067.25,0.0186
3067.00,0.0186
3066.75,0.0186
3066.50,0.0186
3066.25,0.0186
3066.00,0.0186
3065.75,0.0186
3065.50,0.0186
3065.25,0.0186
3065.00,0.0187
3064.75,0.0187
3064.50,0.0187
3064.25,0.0187
3064.00,0.0187
3063.75,0.0187
3063.50,0.0187
3063.25,0.0187
3063.00,0.0187
3062.75,0.0187
3062.50,0.0187
3062.25,0.0187
3062.00,0.0187
3061.75,0.0187
3061.50,0.0187
3061.25,0.0186
3061.00,0.0187
3060.75,0.0187
3060.50,0.0187
3060.25,0.0188
3060.00,0.0189
3059.75,0.0189
3059.50,0.0189
3059.25,0.0189
3059.00,0.0189
3058.75,0.0189
3058.50,0.0189
3058.25,0.0189
3058.00,0.0189
3057.75,0.0189
3057.50,0.0189
3057.25,0.0189
3057.00,0.0189
3056.75,0.0189
3056.50,0.0189
3056.25,0.0189
3056.00,0.0189
3055.75,0.0189
3055.50,0.0190
3055.25,0.0190
3055.00,0.0189
3054.75,0.0189
3054.50,0.0189
3054.25,0.0188
3054.00,0.0188
3053.75,0.0188
3053.50,0.0188
3053.25,0.0189
3053.00,0.0189
3052.75,0.0189
3052.50,0.0189
3052.25,0.0190
3052.00,0.0190
3051.75,0.0190
3051.50,0.0190
3051.25,0.0189
3051.00,0.0189
3050.75,0.0189
3050.50,0.0190
3050.25,0.0190
3050.00,0.0190
3049.75,0.0190
3049.50,0.0189
3049.25,0.0189
3049.00,0.0189
3048.75,0.0188
3048.50,0.0188
3048.25,0.0188
3048.00,0.0187
3047.75,0.0187
3047.50,0.0187
3047.25,0.0187
3047.00,0.0187
3046.75,0.0188
3046.50,0.0188
3046.25,0.0189
3046.00,0.0189
3045.75,0.0189
3045.50,0.0188
3045.25,0.0188
3045.00,0.0188
3044.75,0.0188
3044.50,0.0188
3044.25,0.0187
3044.00,0.0187
3043.75,0.0186
3043.50,0.0186
3043.25,0.0185
3043.00,0.0185
3042.75,0.0186
3042.50,0.0186
3042.25,0.0186
3042.00,0.0186
3041.75,0.0186
3041.50,0.0186
3041.25,0.0186
3041.00,0.0186
3040.75,0.0186
3040.50,0.0186
3040.25,0.0186
3040.00,0.0186
3039.75,0.0186
3039.50,0.0186
3039.25,0.0186
3039.00,0.0186
3038.75,0.0186
3038.50,0.0186
3038.25,0.0186
3038.00,0.0186
3037.75,0.0187
3037.50,0.0187
3037.25,0.0187
3037.00,0.0186
3036.75,0.0186
3036.50,0.0186
3036.25,0.0186
3036.00,0.0186
3035.75,0.0186
3035.50,0.0186
3035.25,0.0186
3035.00,0.0186
3034.75,0.0187
3034.50,0.0187
3034.25,0.0186
3034.00,0.0186
3033.75,0.0186
3033.50,0.0186
3033.25,0.0185
3033.00,0.0185
3032.75,0.0185
3032.50,0.0185
3032.25,0.0185
3032.00,0.0186
3031.75,0.0187
3031.50,0.0187
3031.25,0.0188
3031.00,0.0187
3030.75,0.0187
3030.50,0.0187
3030.25,0.0186
3030.00,0.0187
3029.75,0.0187
3029.50,0.0187
3029.25,0.0187
3029.00,0.0187
3028.75,0.0187
3028.50,0.0187
3028.25,0.0187
3028.00,0.0187
3027.75,0.0186
3027.50,0.0186
3027.25,0.0185
3027.00,0.0185
3026.75,0.0185
3026.50,0.0186
3026.25,0.0186
3026.00,0.0187
3025.75,0.0187
3025.50,0.0187
3025.25,0.0187
3025.00,0.0187
3024.75,0.0187
3024.50,0.0188
3024.25,0.0188
3024.00,0.0188
3023.75,0.0187
3023.50,0.0187
3023.25,0.0187
3023.00,0.0187
3022.75,0.0187
3022.50,0.0187
3022.25,0.0187
3022.00,0.0187
3021.75,0.0188
3021.50,0.0188
3021.25,0.0187
3021.00,0.0187
3020.75,0.0187
3020.50,0.0187
3020.25,0.0188
3020.00,0.0188
3019.75,0.0188
3019.50,0.0188
3019.25,0.0188
3019.00,0.0188
3018.75,0.0188
3018.50,0.0188
3018.25,0.0188
3018.00,0.0188
3017.75,0.0188
3017.50,0.0188
3017.25,0.0188
3017.00,0.0188
3016.75,0.0188
3016.50,0.0188
3016.25,0.0188
3016.00,0.0188
3015.75,0.0188
3015.50,0.0189
3015.25,0.0189
3015.00,0.0189
3014.75,0.0189
3014.50,0.0189
3014.25,0.0188
3014.00,0.0189
3013.75,0.0189
3013.50,0.0189
3013.25,0.0190
3013.00,0.0190
3012.75,0.0190
3012.50,0.0190
3012.25,0.0190
3012.00,0.0190
3011.75,0.0190
3011.50,0.0190
3011.25,0.0189
3011.00,0.0189
3010.75,0.0189
3010.50,0.0189
3010.25,0.0189
3010.00,0.0189
3009.75,0.0189
3009.50,0.0188
3009.25,0.0188
3009.00,0.0188
3008.75,0.0188
3008.50,0.0188
3008.25,0.0188
3008.00,0.0188
3007.75,0.0188
3007.50,0.0189
3007.25,0.0189
3007.00,0.0189
3006.75,0.0189
3006.50,0.0190
3006.25,0.0190
3006.00,0.0190
3005.75,0.0190
3005.50,0.0190
3005.25,0.0190
3005.00,0.0190
3004.75,0.0190
3004.50,0.0189
3004.25,0.0189
3004.00,0.0189
3003.75,0.0190
3003.50,0.0190
3003.25,0.0190
3003.00,0.0190
3002.75,0.0190
3002.50,0.0190
3002.25,0.0190
3002.00,0.0190
3001.75,0.0190
3001.50,0.0190
3001.25,0.0191
3001.00,0.0191
3000.75,0.0191
3000.50,0.0191
3000.25,0.0191
3000.00,0.0191
2999.75,0.0191
2999.50,0.0192
2999.25,0.0192
2999.00,0.0192
2998.75,0.0192
2998.50,0.0192
2998.25,0.0192
2998.00,0.0192
2997.75,0.0192
2997.50,0.0192
2997.25,0.0192
2997.00,0.0192
2996.75,0.0192
2996.50,0.0193
2996.25,0.0193
2996.00,0.0194
2995.75,0.0194
2995.50,0.0195
2995.25,0.0195
2995.00,0.0195
2994.75,0.0195
2994.50,0.0195
2994.25,0.0196
2994.00,0.0196
2993.75,0.0196
2993.50,0.0196
2993.25,0.0196
2993.00,0.0197
2992.75,0.0197
2992.50,0.0197
2992.25,0.0197
2992.00,0.0197
2991.75,0.0198
2991.50,0.0198
2991.25,0.0199
2991.00,0.0199
2990.75,0.0200
2990.50,0.0200
2990.25,0.0200
2990.00,0.0201
2989.75,0.0201
2989.50,0.0201
2989.25,0.0202
2989.00,0.0202
2988.75,0.0202
2988.50,0.0202
2988.25,0.0203
2988.00,0.0204
2987.75,0.0205
2987.50,0.0206
2987.25,0.0206
2987.00,0.0207
2986.75,0.0207
2986.50,0.0207
2986.25,0.0208
2986.00,0.0208
2985.75,0.0209
2985.50,0.0210
2985.25,0.0211
2985.00,0.0212
2984.75,0.0212
2984.50,0.0213
2984.25,0.0214
2984.00,0.0215
2983.75,0.0215
2983.50,0.0216
2983.25,0.0217
2983.00,0.0218
2982.75,0.0219
2982.50,0.0220
2982.25,0.0221
2982.00,0.0222
2981.75,0.0223
2981.50,0.0225
2981.25,0.0226
2981.00,0.0228
2980.75,0.0230
2980.50,0.0231
2980.25,0.0233
2980.00,0.0234
2979.75,0.0235
2979.50,0.0237
2979.25,0.0239
2979.00,0.0240
2978.75,0.0242
2978.50,0.0243
2978.25,0.0245
2978.00,0.0247
2977.75,0.0249
2977.50,0.0252
2977.25,0.0255
2977.00,0.0257
2976.75,0.0260
2976.50,0.0262
2976.25,0.0265
2976.00,0.0267
2975.75,0.0270
2975.50,0.0273
2975.25,0.0277
2975.00,0.0280
2974.75,0.0284
2974.50,0.0288
2974.25,0.0292
2974.00,0.0295
2973.75,0.0299
2973.50,0.0302
2973.25,0.0307
2973.00,0.0311
2972.75,0.0316
2972.50,0.0321
2972.25,0.0326
2972.00,0.0331
2971.75,0.0336
2971.50,0.0341
2971.25,0.0346
2971.00,0.0351
2970.75,0.0357
2970.50,0.0362
2970.25,0.0368
2970.00,0.0375
2969.75,0.0381
2969.50,0.0388
2969.25,0.0394
2969.00,0.0401
2968.75,0.0407
2968.50,0.0414
2968.25,0.0420
2968.00,0.0427
2967.75,0.0434
2967.50,0.0442
2967.25,0.0449
2967.00,0.0457
2966.75,0.0464
2966.50,0.0471
2966.25,0.0478
2966.00,0.0484
2965.75,0.0490
2965.50,0.0496
2965.25,0.0502
2965.00,0.0507
2964.75,0.0513
2964.50,0.0519
2964.25,0.0525
2964.00,0.0530
2963.75,0.0535
2963.50,0.0539
2963.25,0.0542
2963.00,0.0544
2962.75,0.0546
2962.50,0.0547
2962.25,0.0548
2962.00,0.0549
2961.75,0.0550
2961.50,0.0549
2961.25,0.0548
2961.00,0.0545
2960.75,0.0543
2960.50,0.0540
2960.25,0.0536
2960.00,0.0533
2959.75,0.0529
2959.50,0.0524
2959.25,0.0519
2959.00,0.0513
2958.75,0.0507
2958.50,0.0501
2958.25,0.0495
2958.00,0.0488
2957.75,0.0481
2957.50,0.0473
2957.25,0.0466
2957.00,0.0458
2956.75,0.0451
2956.50,0.0444
2956.25,0.0437
2956.00,0.0430
2955.75,0.0423
2955.50,0.0416
2955.25,0.0410
2955.00,0.0403
2954.75,0.0397
2954.50,0.0391
2954.25,0.0385
2954.00,0.0379
2953.75,0.0373
2953.50,0.0367
2953.25,0.0362
2953.00,0.0357
2952.75,0.0353
2952.50,0.0348
2952.25,0.0343
2952.00,0.0338
2951.75,0.0333
2951.50,0.0329
2951.25,0.0324
2951.00,0.0320
2950.75,0.0316
2950.50,0.0313
2950.25,0.0309
2950.00,0.0306
2949.75,0.0303
2949.50,0.0299
2949.25,0.0296
2949.00,0.0293
2948.75,0.0291
2948.50,0.0288
2948.25,0.0285
2948.00,0.0282
2947.75,0.0279
2947.50,0.0276
2947.25,0.0273
2947.00,0.0271
2946.75,0.0269
2946.50,0.0267
2946.25,0.0266
2946.00,0.0264
2945.75,0.0262
2945.50,0.0261
2945.25,0.0259
2945.00,0.0257
2944.75,0.0256
2944.50,0.0254
2944.25,0.0253
2944.00,0.0251
2943.75,0.0250
2943.50,0.0248
2943.25,0.0246
2943.00,0.0244
2942.75,0.0243
2942.50,0.0242
2942.25,0.0241
2942.00,0.0240
2941.75,0.0239
2941.50,0.0238
2941.25,0.0236
2941.00,0.0235
2940.75,0.0234
2940.50,0.0233
2940.25,0.0232
2940.00,0.0231
2939.75,0.0231
2939.50,0.0230
2939.25,0.0229
2939.00,0.0228
2938.75,0.0228
2938.50,0.0227
2938.25,0.0227
2938.00,0.0226
2937.75,0.0226
2937.50,0.0225
2937.25,0.0225
2937.00,0.0225
2936.75,0.0224
2936.50,0.0223
2936.25,0.0222
2936.00,0.0221
2935.75,0.0220
2935.50,0.0219
2935.25,0.0219
2935.00,0.0219
2934.75,0.0218
2934.50,0.0217
2934.25,0.0217
2934.00,0.0216
2933.75,0.0216
2933.50,0.0216
2933.25,0.0216
2933.00,0.0216
2932.75,0.0215
2932.50,0.0215
2932.25,0.0215
2932.00,0.0214
2931.75,0.0213
2931.50,0.0213
2931.25,0.0212
2931.00,0.0212
2930.75,0.0211
2930.50,0.0211
2930.25,0.0211
2930.00,0.0211
2929.75,0.0211
2929.50,0.0210
2929.25,0.0210
2929.00,0.0209
2928.75,0.0209
2928.50,0.0208
2928.25,0.0207
2928.00,0.0207
2927.75,0.0207
2927.50,0.0207
2927.25,0.0207
2927.00,0.0208
2926.75,0.0208
2926.50,0.0208
2926.25,0.0208
2926.00,0.0208
2925.75,0.0208
2925.50,0.0208
2925.25,0.0207
2925.00,0.0207
2924.75,0.0206
2924.50,0.0206
2924.25,0.0206
2924.00,0.0206
2923.75,0.0207
2923.50,0.0207
2923.25,0.0206
2923.00,0.0206
2922.75,0.0206
2922.50,0.0206
2922.25,0.0206
2922.00,0.0206
2921.75,0.0206
2921.50,0.0206
2921.25,0.0206
2921.00,0.0206
2920.75,0.0206
2920.50,0.0206
2920.25,0.0206
2920.00,0.0206
2919.75,0.0206
2919.50,0.0206
2919.25,0.0206
2919.00,0.0206
2918.75,0.0207
2918.50,0.0207
2918.25,0.0208
2918.00,0.0208
2917.75,0.0208
2917.50,0.0208
2917.25,0.0208
2917.00,0.0208
2916.75,0.0208
2916.50,0.0208
2916.25,0.0209
2916.00,0.0209
2915.75,0.0210
2915.50,0.0211
2915.25,0.0212
2915.00,0.0213
2914.75,0.0213
2914.50,0.0213
2914.25,0.0213
2914.00,0.0213
2913.75,0.0214
2913.50,0.0214
2913.25,0.0215
2913.00,0.0216
2912.75,0.0217
2912.50,0.0218
2912.25,0.0219
2912.00,0.0219
2911.75,0.0220
2911.50,0.0221
2911.25,0.0222
2911.00,0.0223
2910.75,0.0223
2910.50,0.0224
2910.25,0.0224
2910.00,0.0224
2909.75,0.0224
2909.50,0.0225
2909.25,0.0226
2909.00,0.0227
2908.75,0.0228
2908.50,0.0229
2908.25,0.0229
2908.00,0.0230
2907.75,0.0231
2907.50,0.0231
2907.25,0.0232
2907.00,0.0232
2906.75,0.0233
2906.50,0.0234
2906.25,0.0234
2906.00,0.0235
2905.75,0.0235
2905.50,0.0236
2905.25,0.0236
2905.00,0.0237
2904.75,0.0237
2904.50,0.0237
2904.25,0.0237
2904.00,0.0237
2903.75,0.0236
2903.50,0.0236
2903.25,0.0236
2903.00,0.0235
2902.75,0.0235
2902.50,0.0235
2902.25,0.0235
2902.00,0.0234
2901.75,0.0234
2901.50,0.0234
2901.25,0.0234
2901.00,0.0234
2900.75,0.0234
2900.50,0.0233
2900.25,0.0232
2900.00,0.0232
2899.75,0.0231
2899.50,0.0230
2899.25,0.0229
2899.00,0.0228
2898.75,0.0227
2898.50,0.0226
2898.25,0.0225
2898.00,0.0225
2897.75,0.0225
2897.50,0.0224
2897.25,0.0224
2897.00,0.0224
2896.75,0.0223
2896.50,0.0222
2896.25,0.0221
2896.00,0.0219
2895.75,0.0219
2895.50,0.0218
2895.25,0.0218
2895.00,0.0217
2894.75,0.0217
2894.50,0.0217
2894.25,0.0216
2894.00,0.0216
2893.75,0.0215
2893.50,0.0215
2893.25,0.0214
2893.00,0.0214
2892.75,0.0213
2892.50,0.0212
2892.25,0.0211
2892.00,0.0211
2891.75,0.0211
2891.50,0.0211
2891.25,0.0210
2891.00,0.0210
2890.75,0.0209
2890.50,0.0209
2890.25,0.0208
2890.00,0.0208
2889.75,0.0208
2889.50,0.0207
2889.25,0.0207
2889.00,0.0207
2888.75,0.0206
2888.50,0.0206
2888.25,0.0205
2888.00,0.0205
2887.75,0.0204
2887.50,0.0204
2887.25,0.0204
2887.00,0.0203
2886.75,0.0203
2886.50,0.0203
2886.25,0.0202
2886.00,0.0203
2885.75,0.0203
2885.50,0.0203
2885.25,0.0203
2885.00,0.0203
2884.75,0.0203
2884.50,0.0202
2884.25,0.0202
2884.00,0.0202
2883.75,0.0202
2883.50,0.0202
2883.25,0.0202
2883.00,0.0201
2882.75,0.0201
2882.50,0.0201
2882.25,0.0201
2882.00,0.0201
2881.75,0.0201
2881.50,0.0201
2881.25,0.0200
2881.00,0.0200
2880.75,0.0200
2880.50,0.0199
2880.25,0.0199
2880.00,0.0199
2879.75,0.0199
2879.50,0.0199
2879.25,0.0199
2879.00,0.0199
2878.75,0.0199
2878.50,0.0198
2878.25,0.0198
2878.00,0.0197
2877.75,0.0197
2877.50,0.0197
2877.25,0.0197
2877.00,0.0197
2876.75,0.0198
2876.50,0.0198
2876.25,0.0198
2876.00,0.0198
2875.75,0.0197
2875.50,0.0197
2875.25,0.0197
2875.00,0.0197
2874.75,0.0196
2874.50,0.0196
2874.25,0.0196
2874.00,0.0196
2873.75,0.0196
2873.50,0.0197
2873.25,0.0197
2873.00,0.0197
2872.75,0.0197
2872.50,0.0197
2872.25,0.0197
2872.00,0.0196
2871.75,0.0196
2871.50,0.0195
2871.25,0.0195
2871.00,0.0194
2870.75,0.0194
2870.50,0.0194
2870.25,0.0194
2870.00,0.0195
2869.75,0.0195
2869.50,0.0195
2869.25,0.0195
2869.00,0.0195
2868.75,0.0195
2868.50,0.0195
2868.25,0.0195
2868.00,0.0194
2867.75,0.0194
2867.50,0.0194
2867.25,0.0194
2867.00,0.0194
2866.75,0.0194
2866.50,0.0194
2866.25,0.0194
2866.00,0.0194
2865.75,0.0194
2865.50,0.0194
2865.25,0.0194
2865.00,0.0194
2864.75,0.0194
2864.50,0.0194
2864.25,0.0194
2864.00,0.0193
2863.75,0.0193
2863.50,0.0192
2863.25,0.0192
2863.00,0.0192
2862.75,0.0192
2862.50,0.0193
2862.25,0.0193
2862.00,0.0193
2861.75,0.0193
2861.50,0.0193
2861.25,0.0193
2861.00,0.0193
2860.75,0.0193
2860.50,0.0193
2860.25,0.0193
2860.00,0.0193
2859.75,0.0192
2859.50,0.0192
2859.25,0.0192
2859.00,0.0191
2858.75,0.0191
2858.50,0.0191
2858.25,0.0191
2858.00,0.0192
2857.75,0.0192
2857.50,0.0192
2857.25,0.0192
2857.00,0.0192
2856.75,0.0192
2856.50,0.0191
2856.25,0.0191
2856.00,0.0191
2855.75,0.0191
2855.50,0.0191
2855.25,0.0191
2855.00,0.0191
2854.75,0.0191
2854.50,0.0190
2854.25,0.0190
2854.00,0.0190
2853.75,0.0190
2853.50,0.0191
2853.25,0.0191
2853.00,0.0191
2852.75,0.0191
2852.50,0.0191
2852.25,0.0191
2852.00,0.0190
2851.75,0.0191
2851.50,0.0191
2851.25,0.0191
2851.00,0.0191
2850.75,0.0191
2850.50,0.0191
2850.25,0.0191
2850.00,0.0191
2849.75,0.0191
2849.50,0.0191
2849.25,0.0191
2849.00,0.0191
2848.75,0.0191
2848.50,0.0191
2848.25,0.0192
2848.00,0.0192
2847.75,0.0192
2847.50,0.0193
2847.25,0.0192
2847.00,0.0192
2846.75,0.0192
2846.50,0.0192
2846.25,0.0192
2846.00,0.0192
2845.75,0.0192
2845.50,0.0192
2845.25,0.0192
2845.00,0.0191
2844.75,0.0192
2844.50,0.0192
2844.25,0.0192
2844.00,0.0192
2843.75,0.0191
2843.50,0.0191
2843.25,0.0191
2843.00,0.0191
2842.75,0.0192
2842.50,0.0192
2842.25,0.0192
2842.00,0.0193
2841.75,0.0193
2841.50,0.0193
2841.25,0.0193
2841.00,0.0193
2840.75,0.0193
2840.50,0.0192
2840.25,0.0193
2840.00,0.0193
2839.75,0.0193
2839.50,0.0193
2839.25,0.0193
2839.00,0.0193
2838.75,0.0193
2838.50,0.0193
2838.25,0.0193
2838.00,0.0193
2837.75,0.0193
2837.50,0.0192
2837.25,0.0192
2837.00,0.0192
2836.75,0.0192
2836.50,0.0192
2836.25,0.0192
2836.00,0.0192
2835.75,0.0192
2835.50,0.0192
2835.25,0.0192
2835.00,0.0192
2834.75,0.0192
2834.50,0.0192
2834.25,0.0192
2834.00,0.0192
2833.75,0.0192
2833.50,0.0192
2833.25,0.0192
2833.00,0.0192
2832.75,0.0191
2832.50,0.0191
2832.25,0.0191
2832.00,0.0191
2831.75,0.0192
2831.50,0.0192
2831.25,0.0192
2831.00,0.0191
2830.75,0.0191
2830.50,0.0191
2830.25,0.0191
2830.00,0.0191
2829.75,0.0191
2829.50,0.0192
2829.25,0.0192
2829.00,0.0192
2828.75,0.0192
2828.50,0.0192
2828.25,0.0192
2828.00,0.0192
2827.75,0.0191
2827.50,0.0191
2827.25,0.0191
2827.00,0.0191
2826.75,0.0191
2826.50,0.0192
2826.25,0.0192
2826.00,0.0192
2825.75,0.0192
2825.50,0.0191
2825.25,0.0191
2825.00,0.0191
2824.75,0.0191
2824.50,0.0191
2824.25,0.0191
2824.00,0.0191
2823.75,0.0191
2823.50,0.0191
2823.25,0.0191
2823.00,0.0191
2822.75,0.0192
2822.50,0.0192
2822.25,0.0192
2822.00,0.0192
2821.75,0.0191
2821.50,0.0191
2821.25,0.0191
2821.00,0.0191
2820.75,0.0191
2820.50,0.0191
2820.25,0.0191
2820.00,0.0191
2819.75,0.0191
2819.50,0.0191
2819.25,0.0191
2819.00,0.0191
2818.75,0.0191
2818.50,0.0192
2818.25,0.0192
2818.00,0.0192
2817.75,0.0192
2817.50,0.0192
2817.25,0.0192
2817.00,0.0193
2816.75,0.0192
2816.50,0.0192
2816.25,0.0192
2816.00,0.0192
2815.75,0.0192
2815.50,0.0192
2815.25,0.0192
2815.00,0.0192
2814.75,0.0192
2814.50,0.0192
2814.25,0.0192
2814.00,0.0192
2813.75,0.0192
2813.50,0.0191
2813.25,0.0191
2813.00,0.0191
2812.75,0.0191
2812.50,0.0191
2812.25,0.0191
2812.00,0.0192
2811.75,0.0192
2811.50,0.0192
2811.25,0.0192
2811.00,0.0192
2810.75,0.0192
2810.50,0.0192
2810.25,0.0192
2810.00,0.0192
2809.75,0.0192
2809.50,0.0192
2809.25,0.0191
2809.00,0.0192
2808.75,0.0192
2808.50,0.0192
2808.25,0.0192
2808.00,0.0192
2807.75,0.0191
2807.50,0.0191
2807.25,0.0192
2807.00,0.0192
2806.75,0.0193
2806.50,0.0193
2806.25,0.0193
2806.00,0.0193
2805.75,0.0193
2805.50,0.0193
2805.25,0.0192
2805.00,0.0192
2804.75,0.0192
2804.50,0.0192
2804.25,0.0192
2804.00,0.0192
2803.75,0.0192
2803.50,0.0192
2803.25,0.0192
2803.00,0.0192
2802.75,0.0192
2802.50,0.0192
2802.25,0.0192
2802.00,0.0192
2801.75,0.0192
2801.50,0.0192
2801.25,0.0192
2801.00,0.0192
2800.75,0.0192
2800.50,0.0192
2800.25,0.0192
2800.00,0.0192
2799.75,0.0192
2799.50,0.0192
2799.25,0.0191
2799.00,0.0191
2798.75,0.0191
2798.50,0.0191
2798.25,0.0192
2798.00,0.0192
2797.75,0.0192
2797.50,0.0191
2797.25,0.0191
2797.00,0.0191
2796.75,0.0191
2796.50,0.0191
2796.25,0.0191
2796.00,0.0191
2795.75,0.0191
2795.50,0.0191
2795.25,0.0191
2795.00,0.0191
2794.75,0.0191
2794.50,0.0191
2794.25,0.0191
2794.00,0.0191
2793.75,0.0191
2793.50,0.0192
2793.25,0.0192
2793.00,0.0192
2792.75,0.0192
2792.50,0.0192
2792.25,0.0192
2792.00,0.0192
2791.75,0.0192
2791.50,0.0191
2791.25,0.0191
2791.00,0.0191
2790.75,0.0191
2790.50,0.0191
2790.25,0.0191
2790.00,0.0191
2789.75,0.0191
2789.50,0.0191
2789.25,0.0192
2789.00,0.0192
2788.75,0.0192
2788.50,0.0191
2788.25,0.0191
2788.00,0.0191
2787.75,0.0191
2787.50,0.0191
2787.25,0.0191
2787.00,0.0190
2786.75,0.0190
2786.50,0.0189
2786.25,0.0189
2786.00,0.0189
2785.75,0.0189
2785.50,0.0189
2785.25,0.0190
2785.00,0.0190
2784.75,0.0190
2784.50,0.0190
2784.25,0.0189
2784.00,0.0189
2783.75,0.0189
2783.50,0.0189
2783.25,0.0189
2783.00,0.0189
2782.75,0.0189
2782.50,0.0189
2782.25,0.0189
2782.00,0.0189
2781.75,0.0189
2781.50,0.0189
2781.25,0.0189
2781.00,0.0189
2780.75,0.0189
2780.50,0.0188
2780.25,0.0188
2780.00,0.0188
2779.75,0.0188
2779.50,0.0188
2779.25,0.0188
2779.00,0.0188
2778.75,0.0188
2778.50,0.0188
2778.25,0.0188
2778.00,0.0188
2777.75,0.0188
2777.50,0.0187
2777.25,0.0187
2777.00,0.0187
2776.75,0.0187
2776.50,0.0187
2776.25,0.0187
2776.00,0.0187
2775.75,0.0187
2775.50,0.0187
2775.25,0.0187
2775.00,0.0187
2774.75,0.0187
2774.50,0.0187
2774.25,0.0187
2774.00,0.0187
2773.75,0.0187
2773.50,0.0187
2773.25,0.0186
2773.00,0.0186
2772.75,0.0186
2772.50,0.0186
2772.25,0.0187
2772.00,0.0187
2771.75,0.0187
2771.50,0.0187
2771.25,0.0187
2771.00,0.0187
2770.75,0.0187
2770.50,0.0187
2770.25,0.0187
2770.00,0.0186
2769.75,0.0186
2769.50,0.0186
2769.25,0.0185
2769.00,0.0185
2768.75,0.0185
2768.50,0.0185
2768.25,0.0185
2768.00,0.0185
2767.75,0.0185
2767.50,0.0185
2767.25,0.0185
2767.00,0.0185
2766.75,0.0185
2766.50,0.0185
2766.25,0.0185
2766.00,0.0185
2765.75,0.0185
2765.50,0.0185
2765.25,0.0185
2765.00,0.0185
2764.75,0.0185
2764.50,0.0185
2764.25,0.0185
2764.00,0.0185
2763.75,0.0185
2763.50,0.0185
2763.25,0.0185
2763.00,0.0185
2762.75,0.0185
2762.50,0.0185
2762.25,0.0185
2762.00,0.0184
2761.75,0.0184
2761.50,0.0185
2761.25,0.0185
2761.00,0.0185
2760.75,0.0185
2760.50,0.0184
2760.25,0.0184
2760.00,0.0184
2759.75,0.0184
2759.50,0.0185
2759.25,0.0185
2759.00,0.0185
2758.75,0.0185
2758.50,0.0185
2758.25,0.0185
2758.00,0.0185
2757.75,0.0185
2757.50,0.0185
2757.25,0.0185
2757.00,0.0184
2756.75,0.0184
2756.50,0.0184
2756.25,0.0184
2756.00,0.0183
2755.75,0.0183
2755.50,0.0184
2755.25,0.0184
2755.00,0.0184
2754.75,0.0185
2754.50,0.0185
2754.25,0.0185
2754.00,0.0184
2753.75,0.0184
2753.50,0.0184
2753.25,0.0184
2753.00,0.0184
2752.75,0.0184
2752.50,0.0184
2752.25,0.0184
2752.00,0.0184
2751.75,0.0184
2751.50,0.0184
2751.25,0.0184
2751.00,0.0184
2750.75,0.0184
2750.50,0.0184
2750.25,0.0184
2750.00,0.0184
2749.75,0.0184
2749.50,0.0184
2749.25,0.0184
2749.00,0.0184
2748.75,0.0184
2748.50,0.0184
2748.25,0.0184
2748.00,0.0184
2747.75,0.0184
2747.50,0.0184
2747.25,0.0184
2747.00,0.0184
2746.75,0.0185
2746.50,0.0185
2746.25,0.0185
2746.00,0.0186
2745.75,0.0185
2745.50,0.0185
2745.25,0.0185
2745.00,0.0185
2744.75,0.0185
2744.50,0.0184
2744.25,0.0184
2744.00,0.0184
2743.75,0.0184
2743.50,0.0183
2743.25,0.0183
2743.00,0.0183
2742.75,0.0183
2742.50,0.0183
2742.25,0.0183
2742.00,0.0184
2741.75,0.0184
2741.50,0.0184
2741.25,0.0185
2741.00,0.0185
2740.75,0.0185
2740.50,0.0184
2740.25,0.0184
2740.00,0.0184
2739.75,0.0183
2739.50,0.0183
2739.25,0.0183
2739.00,0.0183
2738.75,0.0184
2738.50,0.0184
2738.25,0.0184
2738.00,0.0184
2737.75,0.0184
2737.50,0.0184
2737.25,0.0184
2737.00,0.0184
2736.75,0.0184
2736.50,0.0183
2736.25,0.0183
2736.00,0.0183
2735.75,0.0183
2735.50,0.0183
2735.25,0.0184
2735.00,0.0184
2734.75,0.0184
2734.50,0.0185
2734.25,0.0184
2734.00,0.0184
2733.75,0.0184
2733.50,0.0184
2733.25,0.0184
2733.00,0.0184
2732.75,0.0183
2732.50,0.0183
2732.25,0.0183
2732.00,0.0183
2731.75,0.0183
2731.50,0.0183
2731.25,0.0184
2731.00,0.0184
2730.75,0.0184
2730.50,0.0184
2730.25,0.0184
2730.00,0.0184
2729.75,0.0183
2729.50,0.0183
2729.25,0.0183
2729.00,0.0184
2728.75,0.0184
2728.50,0.0184
2728.25,0.0184
2728.00,0.0184
2727.75,0.0184
2727.50,0.0184
2727.25,0.0183
2727.00,0.0183
2726.75,0.0183
2726.50,0.0183
2726.25,0.0183
2726.00,0.0183
2725.75,0.0184
2725.50,0.0184
2725.25,0.0184
2725.00,0.0184
2724.75,0.0184
2724.50,0.0184
2724.25,0.0184
2724.00,0.0184
2723.75,0.0184
2723.50,0.0184
2723.25,0.0184
2723.00,0.0183
2722.75,0.0183
2722.50,0.0184
2722.25,0.0184
2722.00,0.0184
2721.75,0.0184
2721.50,0.0183
2721.25,0.0183
2721.00,0.0183
2720.75,0.0183
2720.50,0.0183
2720.25,0.0183
2720.00,0.0184
2719.75,0.0184
2719.50,0.0184
2719.25,0.0184
2719.00,0.0184
2718.75,0.0184
2718.50,0.0184
2718.25,0.0184
2718.00,0.0184
2717.75,0.0183
2717.50,0.0183
2717.25,0.0183
2717.00,0.0183
2716.75,0.0184
2716.50,0.0184
2716.25,0.0184
2716.00,0.0184
2715.75,0.0184
2715.50,0.0184
2715.25,0.0183
2715.00,0.0183
2714.75,0.0184
2714.50,0.0184
2714.25,0.0184
2714.00,0.0184
2713.75,0.0183
2713.50,0.0183
2713.25,0.0183
2713.00,0.0183
2712.75,0.0183
2712.50,0.0184
2712.25,0.0184
2712.00,0.0184
2711.75,0.0184
2711.50,0.0184
2711.25,0.0184
2711.00,0.0184
2710.75,0.0184
2710.50,0.0185
2710.25,0.0185
2710.00,0.0184
2709.75,0.0184
2709.50,0.0183
2709.25,0.0183
2709.00,0.0183
2708.75,0.0183
2708.50,0.0183
2708.25,0.0183
2708.00,0.0184
2707.75,0.0184
2707.50,0.0184
2707.25,0.0184
2707.00,0.0183
2706.75,0.0183
2706.50,0.0183
2706.25,0.0182
2706.00,0.0182
2705.75,0.0182
2705.50,0.0182
2705.25,0.0182
2705.00,0.0182
2704.75,0.0183
2704.50,0.0183
2704.25,0.0183
2704.00,0.0183
2703.75,0.0183
2703.50,0.0183
2703.25,0.0183
2703.00,0.0183
2702.75,0.0183
2702.50,0.0182
2702.25,0.0182
2702.00,0.0183
2701.75,0.0183
2701.50,0.0184
2701.25,0.0184
2701.00,0.0184
2700.75,0.0183
2700.50,0.0183
2700.25,0.0183
2700.00,0.0183
2699.75,0.0183
2699.50,0.0183
2699.25,0.0183
2699.00,0.0184
2698.75,0.0184
2698.50,0.0184
2698.25,0.0184
2698.00,0.0183
2697.75,0.0183
2697.50,0.0183
2697.25,0.0183
2697.00,0.0183
2696.75,0.0184
2696.50,0.0184
2696.25,0.0184
2696.00,0.0184
2695.75,0.0184
2695.50,0.0183
2695.25,0.0183
2695.00,0.0183
2694.75,0.0183
2694.50,0.0183
2694.25,0.0183
2694.00,0.0183
2693.75,0.0183
2693.50,0.0182
2693.25,0.0182
2693.00,0.0182
2692.75,0.0182
2692.50,0.0182
2692.25,0.0183
2692.00,0.0183
2691.75,0.0183
2691.50,0.0183
2691.25,0.0183
2691.00,0.0183
2690.75,0.0182
2690.50,0.0182
2690.25,0.0182
2690.00,0.0183
2689.75,0.0183
2689.50,0.0183
2689.25,0.0183
2689.00,0.0183
2688.75,0.0183
2688.50,0.0183
2688.25,0.0183
2688.00,0.0183
2687.75,0.0183
2687.50,0.0182
2687.25,0.0182
2687.00,0.0183
2686.75,0.0183
2686.50,0.0183
2686.25,0.0184
2686.00,0.0184
2685.75,0.0183
2685.50,0.0183
2685.25,0.0183
2685.00,0.0183
2684.75,0.0183
2684.50,0.0184
2684.25,0.0184
2684.00,0.0184
2683.75,0.0184
2683.50,0.0183
2683.25,0.0183
2683.00,0.0183
2682.75,0.0182
2682.50,0.0182
2682.25,0.0182
2682.00,0.0182
2681.75,0.0181
2681.50,0.0181
2681.25,0.0182
2681.00,0.0182
2680.75,0.0182
2680.50,0.0183
2680.25,0.0183
2680.00,0.0183
2679.75,0.0183
2679.50,0.0183
2679.25,0.0183
2679.00,0.0182
2678.75,0.0182
2678.50,0.0182
2678.25,0.0182
2678.00,0.0182
2677.75,0.0183
2677.50,0.0183
2677.25,0.0183
2677.00,0.0183
2676.75,0.0183
2676.50,0.0183
2676.25,0.0183
2676.00,0.0183
2675.75,0.0183
2675.50,0.0183
2675.25,0.0183
2675.00,0.0183
2674.75,0.0183
2674.50,0.0183
2674.25,0.0183
2674.00,0.0183
2673.75,0.0183
2673.50,0.0183
2673.25,0.0183
2673.00,0.0183
2672.75,0.0184
2672.50,0.0184
2672.25,0.0183
2672.00,0.0183
2671.75,0.0183
2671.50,0.0183
2671.25,0.0183
2671.00,0.0184
2670.75,0.0184
2670.50,0.0184
2670.25,0.0184
2670.00,0.0184
2669.75,0.0184
2669.50,0.0184
2669.25,0.0184
2669.00,0.0184
2668.75,0.0185
2668.50,0.0185
2668.25,0.0185
2668.00,0.0184
2667.75,0.0184
2667.50,0.0184
2667.25,0.0183
2667.00,0.0183
2666.75,0.0183
2666.50,0.0183
2666.25,0.0183
2666.00,0.0184
2665.75,0.0184
2665.50,0.0184
2665.25,0.0184
2665.00,0.0184
2664.75,0.0184
2664.50,0.0184
2664.25,0.0184
2664.00,0.0184
2663.75,0.0184
2663.50,0.0185
2663.25,0.0185
2663.00,0.0185
2662.75,0.0185
2662.50,0.0184
2662.25,0.0184
2662.00,0.0184
2661.75,0.0184
2661.50,0.0184
2661.25,0.0183
2661.00,0.0183
2660.75,0.0184
2660.50,0.0184
2660.25,0.0184
2660.00,0.0183
2659.75,0.0183
2659.50,0.0183
2659.25,0.0183
2659.00,0.0183
2658.75,0.0182
2658.50,0.0182
2658.25,0.0182
2658.00,0.0182
2657.75,0.0182
2657.50,0.0182
2657.25,0.0182
2657.00,0.0182
2656.75,0.0182
2656.50,0.0182
2656.25,0.0182
2656.00,0.0182
2655.75,0.0182
2655.50,0.0182
2655.25,0.0182
2655.00,0.0182
2654.75,0.0182
2654.50,0.0182
2654.25,0.0182
2654.00,0.0182
2653.75,0.0181
2653.50,0.0181
2653.25,0.0181
2653.00,0.0181
2652.75,0.0180
2652.50,0.0180
2652.25,0.0180
2652.00,0.0180
2651.75,0.0180
2651.50,0.0180
2651.25,0.0180
2651.00,0.0180
2650.75,0.0179
2650.50,0.0180
2650.25,0.0180
2650.00,0.0180
2649.75,0.0181
2649.50,0.0181
2649.25,0.0181
2649.00,0.0181
2648.75,0.0181
2648.50,0.0180
2648.25,0.0180
2648.00,0.0180
2647.75,0.0180
2647.50,0.0180
2647.25,0.0180
2647.00,0.0180
2646.75,0.0180
2646.50,0.0180
2646.25,0.0180
2646.00,0.0179
2645.75,0.0179
2645.50,0.0179
2645.25,0.0179
2645.00,0.0179
2644.75,0.0179
2644.50,0.0179
2644.25,0.0179
2644.00,0.0179
2643.75,0.0179
2643.50,0.0179
2643.25,0.0178
2643.00,0.0178
2642.75,0.0178
2642.50,0.0177
2642.25,0.0177
2642.00,0.0177
2641.75,0.0177
2641.50,0.0177
2641.25,0.0177
2641.00,0.0177
2640.75,0.0177
2640.50,0.0176
2640.25,0.0176
2640.00,0.0176
2639.75,0.0177
2639.50,0.0177
2639.25,0.0177
2639.00,0.0177
2638.75,0.0177
2638.50,0.0177
2638.25,0.0177
2638.00,0.0177
2637.75,0.0177
2637.50,0.0177
2637.25,0.0177
2637.00,0.0177
2636.75,0.0176
2636.50,0.0176
2636.25,0.0176
2636.00,0.0176
2635.75,0.0176
2635.50,0.0176
2635.25,0.0176
2635.00,0.0176
2634.75,0.0176
2634.50,0.0176
2634.25,0.0175
2634.00,0.0175
2633.75,0.0175
2633.50,0.0174
2633.25,0.0175
2633.00,0.0175
2632.75,0.0175
2632.50,0.0175
2632.25,0.0174
2632.00,0.0174
2631.75,0.0174
2631.50,0.0174
2631.25,0.0173
2631.00,0.0173
2630.75,0.0173
2630.50,0.0172
2630.25,0.0172
2630.00,0.0172
2629.75,0.0172
2629.50,0.0172
2629.25,0.0173
2629.00,0.0174
2628.75,0.0174
2628.50,0.0174
2628.25,0.0174
2628.00,0.0174
2627.75,0.0173
2627.50,0.0173
2627.25,0.0172
2627.00,0.0172
2626.75,0.0171
2626.50,0.0172
2626.25,0.0172
2626.00,0.0172
2625.75,0.0172
2625.50,0.0172
2625.25,0.0172
2625.00,0.0172
2624.75,0.0172
2624.50,0.0172
2624.25,0.0172
2624.00,0.0172
2623.75,0.0172
2623.50,0.0171
2623.25,0.0171
2623.00,0.0171
2622.75,0.0172
2622.50,0.0171
2622.25,0.0171
2622.00,0.0171
2621.75,0.0170
2621.50,0.0170
2621.25,0.0170
2621.00,0.0170
2620.75,0.0170
2620.50,0.0170
2620.25,0.0171
2620.00,0.0171
2619.75,0.0171
2619.50,0.0171
2619.25,0.0171
2619.00,0.0171
2618.75,0.0171
2618.50,0.0170
2618.25,0.0170
2618.00,0.0170
2617.75,0.0170
2617.50,0.0170
2617.25,0.0170
2617.00,0.0170
2616.75,0.0171
2616.50,0.0170
2616.25,0.0170
2616.00,0.0169
2615.75,0.0168
2615.50,0.0168
2615.25,0.0168
2615.00,0.0168
2614.75,0.0169
2614.50,0.0169
2614.25,0.0170
2614.00,0.0170
2613.75,0.0170
2613.50,0.0170
2613.25,0.0170
2613.00,0.0170
2612.75,0.0169
2612.50,0.0169
2612.25,0.0169
2612.00,0.0170
2611.75,0.0170
2611.50,0.0170
2611.25,0.0170
2611.00,0.0169
2610.75,0.0169
2610.50,0.0169
2610.25,0.0168
2610.00,0.0168
2609.75,0.0168
2609.50,0.0168
2609.25,0.0168
2609.00,0.0168
2608.75,0.0168
2608.50,0.0168
2608.25,0.0168
2608.00,0.0168
2607.75,0.0168
2607.50,0.0167
2607.25,0.0167
2607.00,0.0166
2606.75,0.0166
2606.50,0.0167
2606.25,0.0167
2606.00,0.0168
2605.75,0.0168
2605.50,0.0168
2605.25,0.0167
2605.00,0.0166
2604.75,0.0166
2604.50,0.0166
2604.25,0.0166
2604.00,0.0166
2603.75,0.0166
2603.50,0.0166
2603.25,0.0166
2603.00,0.0165
2602.75,0.0165
2602.50,0.0164
2602.25,0.0164
2602.00,0.0164
2601.75,0.0164
2601.50,0.0164
2601.25,0.0165
2601.00,0.0165
2600.75,0.0166
2600.50,0.0165
2600.25,0.0165
2600.00,0.0164
2599.75,0.0164
2599.50,0.0165
2599.25,0.0165
2599.00,0.0166
2598.75,0.0166
2598.50,0.0165
2598.25,0.0165
2598.00,0.0165
2597.75,0.0164
2597.50,0.0164
2597.25,0.0164
2597.00,0.0164
2596.75,0.0164
2596.50,0.0164
2596.25,0.0164
2596.00,0.0164
2595.75,0.0164
2595.50,0.0165
2595.25,0.0165
2595.00,0.0165
2594.75,0.0165
2594.50,0.0165
2594.25,0.0165
2594.00,0.0165
2593.75,0.0165
2593.50,0.0165
2593.25,0.0165
2593.00,0.0165
2592.75,0.0164
2592.50,0.0164
2592.25,0.0163
2592.00,0.0163
2591.75,0.0163
2591.50,0.0163
2591.25,0.0162
2591.00,0.0162
2590.75,0.0161
2590.50,0.0161
2590.25,0.0161
2590.00,0.0162
2589.75,0.0162
2589.50,0.0162
2589.25,0.0162
2589.00,0.0162
2588.75,0.0162
2588.50,0.0163
2588.25,0.0163
2588.00,0.0163
2587.75,0.0163
2587.50,0.0162
2587.25,0.0162
2587.00,0.0162
2586.75,0.0162
2586.50,0.0162
2586.25,0.0162
2586.00,0.0162
2585.75,0.0161
2585.50,0.0161
2585.25,0.0161
2585.00,0.0162
2584.75,0.0162
2584.50,0.0163
2584.25,0.0163
2584.00,0.0162
2583.75,0.0162
2583.50,0.0161
2583.25,0.0161
2583.00,0.0161
2582.75,0.0161
2582.50,0.0162
2582.25,0.0163
2582.00,0.0163
2581.75,0.0164
2581.50,0.0164
2581.25,0.0163
2581.00,0.0163
2580.75,0.0163
2580.50,0.0162
2580.25,0.0162
2580.00,0.0162
2579.75,0.0161
2579.50,0.0161
2579.25,0.0161
2579.00,0.0161
2578.75,0.0161
2578.50,0.0161
2578.25,0.0160
2578.00,0.0160
2577.75,0.0161
2577.50,0.0161
2577.25,0.0161
2577.00,0.0161
2576.75,0.0162
2576.50,0.0161
2576.25,0.0161
2576.00,0.0161
2575.75,0.0161
2575.50,0.0161
2575.25,0.0160
2575.00,0.0160
2574.75,0.0160
2574.50,0.0160
2574.25,0.0161
2574.00,0.0160
2573.75,0.0160
2573.50,0.0160
2573.25,0.0160
2573.00,0.0159
2572.75,0.0160
2572.50,0.0160
2572.25,0.0160
2572.00,0.0160
2571.75,0.0160
2571.50,0.0160
2571.25,0.0160
2571.00,0.0160
2570.75,0.0160
2570.50,0.0159
2570.25,0.0159
2570.00,0.0159
2569.75,0.0158
2569.50,0.0158
2569.25,0.0159
2569.00,0.0159
2568.75,0.0160
2568.50,0.0161
2568.25,0.0161
2568.00,0.0161
2567.75,0.0161
2567.50,0.0161
2567.25,0.0160
2567.00,0.0160
2566.75,0.0159
2566.50,0.0158
2566.25,0.0157
2566.00,0.0157
2565.75,0.0157
2565.50,0.0158
2565.25,0.0159
2565.00,0.0160
2564.75,0.0160
2564.50,0.0161
2564.25,0.0160
2564.00,0.0160
2563.75,0.0159
2563.50,0.0158
2563.25,0.0157
2563.00,0.0157
2562.75,0.0156
2562.50,0.0156
2562.25,0.0157
2562.00,0.0157
2561.75,0.0158
2561.50,0.0158
2561.25,0.0159
2561.00,0.0159
2560.75,0.0159
2560.50,0.0160
2560.25,0.0160
2560.00,0.0160
2559.75,0.0159
2559.50,0.0158
2559.25,0.0157
2559.00,0.0156
2558.75,0.0157
2558.50,0.0157
2558.25,0.0158
2558.00,0.0158
2557.75,0.0158
2557.50,0.0158
2557.25,0.0158
2557.00,0.0157
2556.75,0.0157
2556.50,0.0157
2556.25,0.0157
2556.00,0.0156
2555.75,0.0156
2555.50,0.0155
2555.25,0.0155
2555.00,0.0155
2554.75,0.0156
2554.50,0.0157
2554.25,0.0157
2554.00,0.0157
2553.75,0.0157
2553.50,0.0157
2553.25,0.0157
2553.00,0.0157
2552.75,0.0156
2552.50,0.0156
2552.25,0.0156
2552.00,0.0156
2551.75,0.0157
2551.50,0.0157
2551.25,0.0157
2551.00,0.0157
2550.75,0.0156
2550.50,0.0156
2550.25,0.0156
2550.00,0.0156
2549.75,0.0156
2549.50,0.0157
2549.25,0.0157
2549.00,0.0157
2548.75,0.0157
2548.50,0.0157
2548.25,0.0157
2548.00,0.0157
2547.75,0.0157
2547.50,0.0156
2547.25,0.0156
2547.00,0.0155
2546.75,0.0155
2546.50,0.0155
2546.25,0.0156
2546.00,0.0156
2545.75,0.0156
2545.50,0.0155
2545.25,0.0155
2545.00,0.0155
2544.75,0.0155
2544.50,0.0155
2544.25,0.0155
2544.00,0.0155
2543.75,0.0155
2543.50,0.0155
2543.25,0.0154
2543.00,0.0155
2542.75,0.0155
2542.50,0.0154
2542.25,0.0154
2542.00,0.0154
2541.75,0.0154
2541.50,0.0154
2541.25,0.0154
2541.00,0.0153
2540.75,0.0153
2540.50,0.0154
2540.25,0.0154
2540.00,0.0155
2539.75,0.0155
2539.50,0.0154
2539.25,0.0153
2539.00,0.0153
2538.75,0.0153
2538.50,0.0154
2538.25,0.0155
2538.00,0.0155
2537.75,0.0154
2537.50,0.0154
2537.25,0.0153
2537.00,0.0153
2536.75,0.0153
2536.50,0.0153
2536.25,0.0152
2536.00,0.0152
2535.75,0.0152
2535.50,0.0152
2535.25,0.0152
2535.00,0.0153
2534.75,0.0153
2534.50,0.0152
2534.25,0.0151
2534.00,0.0150
2533.75,0.0150
2533.50,0.0151
2533.25,0.0151
2533.00,0.0152
2532.75,0.0152
2532.50,0.0152
2532.25,0.0152
2532.00,0.0151
2531.75,0.0150
2531.50,0.0149
2531.25,0.0149
2531.00,0.0148
2530.75,0.0148
2530.50,0.0148
2530.25,0.0148
2530.00,0.0148
2529.75,0.0147
2529.50,0.0148
2529.25,0.0148
2529.00,0.0148
2528.75,0.0148
2528.50,0.0148
2528.25,0.0148
2528.00,0.0148
2527.75,0.0148
2527.50,0.0148
2527.25,0.0149
2527.00,0.0149
2526.75,0.0148
2526.50,0.0147
2526.25,0.0146
2526.00,0.0145
2525.75,0.0144
2525.50,0.0143
2525.25,0.0143
2525.00,0.0144
2524.75,0.0144
2524.50,0.0144
2524.25,0.0144
2524.00,0.0144
2523.75,0.0144
2523.50,0.0144
2523.25,0.0145
2523.00,0.0145
2522.75,0.0144
2522.50,0.0143
2522.25,0.0142
2522.00,0.0142
2521.75,0.0142
2521.50,0.0142
2521.25,0.0143
2521.00,0.0143
2520.75,0.0143
2520.50,0.0143
2520.25,0.0142
2520.00,0.0142
2519.75,0.0142
2519.50,0.0142
2519.25,0.0143
2519.00,0.0143
2518.75,0.0144
2518.50,0.0143
2518.25,0.0143
2518.00,0.0143
2517.75,0.0142
2517.50,0.0142
2517.25,0.0142
2517.00,0.0142
2516.75,0.0141
2516.50,0.0141
2516.25,0.0140
2516.00,0.0140
2515.75,0.0141
2515.50,0.0142
2515.25,0.0143
2515.00,0.0144
2514.75,0.0144
2514.50,0.0143
2514.25,0.0142
2514.00,0.0141
2513.75,0.0141
2513.50,0.0141
2513.25,0.0141
2513.00,0.0141
2512.75,0.0142
2512.50,0.0143
2512.25,0.0143
2512.00,0.0144
2511.75,0.0144
2511.50,0.0144
2511.25,0.0144
2511.00,0.0144
2510.75,0.0144
2510.50,0.0144
2510.25,0.0144
2510.00,0.0145
2509.75,0.0145
2509.50,0.0145
2509.25,0.0145
2509.00,0.0144
2508.75,0.0143
2508.50,0.0143
2508.25,0.0143
2508.00,0.0143
2507.75,0.0144
2507.50,0.0144
2507.25,0.0144
2507.00,0.0145
2506.75,0.0145
2506.50,0.0145
2506.25,0.0146
2506.00,0.0146
2505.75,0.0146
2505.50,0.0146
2505.25,0.0146
2505.00,0.0146
2504.75,0.0146
2504.50,0.0146
2504.25,0.0146
2504.00,0.0146
2503.75,0.0147
2503.50,0.0147
2503.25,0.0148
2503.00,0.0148
2502.75,0.0148
2502.50,0.0148
2502.25,0.0148
2502.00,0.0148
2501.75,0.0148
2501.50,0.0148
2501.25,0.0148
2501.00,0.0149
2500.75,0.0149
2500.50,0.0150
2500.25,0.0150
2500.00,0.0151
2499.75,0.0151
2499.50,0.0151
2499.25,0.0150
2499.00,0.0150
2498.75,0.0150
2498.50,0.0150
2498.25,0.0151
2498.00,0.0151
2497.75,0.0152
2497.50,0.0152
2497.25,0.0151
2497.00,0.0150
2496.75,0.0150
2496.50,0.0150
2496.25,0.0151
2496.00,0.0152
2495.75,0.0152
2495.50,0.0153
2495.25,0.0153
2495.00,0.0152
2494.75,0.0152
2494.50,0.0152
2494.25,0.0152
2494.00,0.0152
2493.75,0.0152
2493.50,0.0153
2493.25,0.0153
2493.00,0.0153
2492.75,0.0153
2492.50,0.0153
2492.25,0.0153
2492.00,0.0153
2491.75,0.0152
2491.50,0.0152
2491.25,0.0151
2491.00,0.0151
2490.75,0.0152
2490.50,0.0153
2490.25,0.0153
2490.00,0.0154
2489.75,0.0153
2489.50,0.0153
2489.25,0.0152
2489.00,0.0152
2488.75,0.0151
2488.50,0.0151
2488.25,0.0152
2488.00,0.0152
2487.75,0.0153
2487.50,0.0153
2487.25,0.0153
2487.00,0.0154
2486.75,0.0154
2486.50,0.0154
2486.25,0.0154
2486.00,0.0154
2485.75,0.0154
2485.50,0.0154
2485.25,0.0154
2485.00,0.0154
2484.75,0.0154
2484.50,0.0154
2484.25,0.0154
2484.00,0.0153
2483.75,0.0152
2483.50,0.0152
2483.25,0.0152
2483.00,0.0152
2482.75,0.0153
2482.50,0.0154
2482.25,0.0155
2482.00,0.0155
2481.75,0.0155
2481.50,0.0155
2481.25,0.0155
2481.00,0.0155
2480.75,0.0155
2480.50,0.0156
2480.25,0.0156
2480.00,0.0156
2479.75,0.0156
2479.50,0.0156
2479.25,0.0156
2479.00,0.0156
2478.75,0.0155
2478.50,0.0155
2478.25,0.0155
2478.00,0.0155
2477.75,0.0155
2477.50,0.0154
2477.25,0.0154
2477.00,0.0155
2476.75,0.0155
2476.50,0.0155
2476.25,0.0156
2476.00,0.0156
2475.75,0.0156
2475.50,0.0155
2475.25,0.0155
2475.00,0.0154
2474.75,0.0154
2474.50,0.0153
2474.25,0.0153
2474.00,0.0152
2473.75,0.0152
2473.50,0.0152
2473.25,0.0152
2473.00,0.0152
2472.75,0.0153
2472.50,0.0154
2472.25,0.0154
2472.00,0.0155
2471.75,0.0155
2471.50,0.0155
2471.25,0.0155
2471.00,0.0155
2470.75,0.0155
2470.50,0.0155
2470.25,0.0154
2470.00,0.0153
2469.75,0.0152
2469.50,0.0152
2469.25,0.0152
2469.00,0.0153
2468.75,0.0154
2468.50,0.0154
2468.25,0.0154
2468.00,0.0154
2467.75,0.0153
2467.50,0.0153
2467.25,0.0154
2467.00,0.0155
2466.75,0.0155
2466.50,0.0156
2466.25,0.0156
2466.00,0.0156
2465.75,0.0156
2465.50,0.0156
2465.25,0.0156
2465.00,0.0156
2464.75,0.0155
2464.50,0.0155
2464.25,0.0154
2464.00,0.0155
2463.75,0.0155
2463.50,0.0155
2463.25,0.0155
2463.00,0.0155
2462.75,0.0155
2462.50,0.0154
2462.25,0.0154
2462.00,0.0154
2461.75,0.0155
2461.50,0.0155
2461.25,0.0156
2461.00,0.0156
2460.75,0.0156
2460.50,0.0156
2460.25,0.0156
2460.00,0.0155
2459.75,0.0155
2459.50,0.0155
2459.25,0.0155
2459.00,0.0155
2458.75,0.0155
2458.50,0.0155
2458.25,0.0154
2458.00,0.0154
2457.75,0.0154
2457.50,0.0154
2457.25,0.0154
2457.00,0.0155
2456.75,0.0155
2456.50,0.0155
2456.25,0.0154
2456.00,0.0154
2455.75,0.0153
2455.50,0.0152
2455.25,0.0152
2455.00,0.0152
2454.75,0.0151
2454.50,0.0151
2454.25,0.0151
2454.00,0.0152
2453.75,0.0153
2453.50,0.0154
2453.25,0.0155
2453.00,0.0155
2452.75,0.0155
2452.50,0.0154
2452.25,0.0154
2452.00,0.0154
2451.75,0.0154
2451.50,0.0153
2451.25,0.0153
2451.00,0.0152
2450.75,0.0152
2450.50,0.0152
2450.25,0.0153
2450.00,0.0153
2449.75,0.0154
2449.50,0.0154
2449.25,0.0154
2449.00,0.0154
2448.75,0.0154
2448.50,0.0154
2448.25,0.0153
2448.00,0.0153
2447.75,0.0153
2447.50,0.0154
2447.25,0.0154
2447.00,0.0154
2446.75,0.0154
2446.50,0.0154
2446.25,0.0154
2446.00,0.0154
2445.75,0.0154
2445.50,0.0153
2445.25,0.0152
2445.00,0.0151
2444.75,0.0151
2444.50,0.0151
2444.25,0.0151
2444.00,0.0152
2443.75,0.0152
2443.50,0.0153
2443.25,0.0154
2443.00,0.0154
2442.75,0.0155
2442.50,0.0155
2442.25,0.0155
2442.00,0.0155
2441.75,0.0155
2441.50,0.0154
2441.25,0.0154
2441.00,0.0154
2440.75,0.0154
2440.50,0.0153
2440.25,0.0153
2440.00,0.0153
2439.75,0.0153
2439.50,0.0153
2439.25,0.0153
2439.00,0.0153
2438.75,0.0153
2438.50,0.0153
2438.25,0.0154
2438.00,0.0154
2437.75,0.0154
2437.50,0.0154
2437.25,0.0154
2437.00,0.0153
2436.75,0.0153
2436.50,0.0152
2436.25,0.0152
2436.00,0.0151
2435.75,0.0151
2435.50,0.0151
2435.25,0.0152
2435.00,0.0152
2434.75,0.0153
2434.50,0.0153
2434.25,0.0154
2434.00,0.0154
2433.75,0.0154
2433.50,0.0153
2433.25,0.0153
2433.00,0.0152
2432.75,0.0152
2432.50,0.0152
2432.25,0.0153
2432.00,0.0153
2431.75,0.0153
2431.50,0.0153
2431.25,0.0153
2431.00,0.0153
2430.75,0.0153
2430.50,0.0153
2430.25,0.0153
2430.00,0.0153
2429.75,0.0154
2429.50,0.0154
2429.25,0.0155
2429.00,0.0154
2428.75,0.0154
2428.50,0.0153
2428.25,0.0153
2428.00,0.0153
2427.75,0.0153
2427.50,0.0153
2427.25,0.0152
2427.00,0.0152
2426.75,0.0151
2426.50,0.0152
2426.25,0.0153
2426.00,0.0154
2425.75,0.0154
2425.50,0.0154
2425.25,0.0154
2425.00,0.0154
2424.75,0.0154
2424.50,0.0154
2424.25,0.0155
2424.00,0.0155
2423.75,0.0155
2423.50,0.0155
2423.25,0.0154
2423.00,0.0154
2422.75,0.0153
2422.50,0.0153
2422.25,0.0154
2422.00,0.0155
2421.75,0.0156
2421.50,0.0157
2421.25,0.0157
2421.00,0.0157
2420.75,0.0157
2420.50,0.0156
2420.25,0.0155
2420.00,0.0155
2419.75,0.0154
2419.50,0.0154
2419.25,0.0154
2419.00,0.0153
2418.75,0.0154
2418.50,0.0154
2418.25,0.0155
2418.00,0.0155
2417.75,0.0156
2417.50,0.0155
2417.25,0.0155
2417.00,0.0155
2416.75,0.0155
2416.50,0.0155
2416.25,0.0155
2416.00,0.0156
2415.75,0.0156
2415.50,0.0156
2415.25,0.0156
2415.00,0.0155
2414.75,0.0155
2414.50,0.0154
2414.25,0.0153
2414.00,0.0153
2413.75,0.0153
2413.50,0.0153
2413.25,0.0153
2413.00,0.0153
2412.75,0.0154
2412.50,0.0155
2412.25,0.0156
2412.00,0.0156
2411.75,0.0156
2411.50,0.0156
2411.25,0.0156
2411.00,0.0156
2410.75,0.0156
2410.50,0.0156
2410.25,0.0155
2410.00,0.0155
2409.75,0.0155
2409.50,0.0155
2409.25,0.0155
2409.00,0.0155
2408.75,0.0156
2408.50,0.0157
2408.25,0.0158
2408.00,0.0158
2407.75,0.0157
2407.50,0.0156
2407.25,0.0155
2407.00,0.0155
2406.75,0.0154
2406.50,0.0154
2406.25,0.0154
2406.00,0.0155
2405.75,0.0155
2405.50,0.0155
2405.25,0.0155
2405.00,0.0155
2404.75,0.0156
2404.50,0.0156
2404.25,0.0157
2404.00,0.0157
2403.75,0.0157
2403.50,0.0157
2403.25,0.0157
2403.00,0.0157
2402.75,0.0157
2402.50,0.0156
2402.25,0.0156
2402.00,0.0156
2401.75,0.0156
2401.50,0.0156
2401.25,0.0156
2401.00,0.0157
2400.75,0.0157
2400.50,0.0157
2400.25,0.0157
2400.00,0.0157
2399.75,0.0157
2399.50,0.0157
2399.25,0.0156
2399.00,0.0156
2398.75,0.0155
2398.50,0.0156
2398.25,0.0156
2398.00,0.0157
2397.75,0.0158
2397.50,0.0158
2397.25,0.0158
2397.00,0.0158
2396.75,0.0158
2396.50,0.0157
2396.25,0.0156
2396.00,0.0156
2395.75,0.0156
2395.50,0.0157
2395.25,0.0157
2395.00,0.0157
2394.75,0.0157
2394.50,0.0157
2394.25,0.0157
2394.00,0.0157
2393.75,0.0157
2393.50,0.0157
2393.25,0.0157
2393.00,0.0157
2392.75,0.0157
2392.50,0.0157
2392.25,0.0157
2392.00,0.0157
2391.75,0.0157
2391.50,0.0157
2391.25,0.0157
2391.00,0.0157
2390.75,0.0158
2390.50,0.0158
2390.25,0.0158
2390.00,0.0158
2389.75,0.0158
2389.50,0.0159
2389.25,0.0159
2389.00,0.0159
2388.75,0.0159
2388.50,0.0158
2388.25,0.0158
2388.00,0.0158
2387.75,0.0158
2387.50,0.0158
2387.25,0.0158
2387.00,0.0158
2386.75,0.0158
2386.50,0.0159
2386.25,0.0159
2386.00,0.0160
2385.75,0.0159
2385.50,0.0159
2385.25,0.0158
2385.00,0.0158
2384.75,0.0158
2384.50,0.0159
2384.25,0.0159
2384.00,0.0159
2383.75,0.0159
2383.50,0.0159
2383.25,0.0159
2383.00,0.0159
2382.75,0.0159
2382.50,0.0158
2382.25,0.0158
2382.00,0.0157
2381.75,0.0158
2381.50,0.0158
2381.25,0.0159
2381.00,0.0160
2380.75,0.0161
2380.50,0.0161
2380.25,0.0161
2380.00,0.0161
2379.75,0.0161
2379.50,0.0161
2379.25,0.0161
2379.00,0.0161
2378.75,0.0162
2378.50,0.0162
2378.25,0.0162
2378.00,0.0163
2377.75,0.0164
2377.50,0.0165
2377.25,0.0165
2377.00,0.0164
2376.75,0.0163
2376.50,0.0161
2376.25,0.0160
2376.00,0.0160
2375.75,0.0160
2375.50,0.0161
2375.25,0.0162
2375.00,0.0164
2374.75,0.0165
2374.50,0.0166
2374.25,0.0167
2374.00,0.0167
2373.75,0.0168
2373.50,0.0167
2373.25,0.0166
2373.00,0.0164
2372.75,0.0162
2372.50,0.0161
2372.25,0.0160
2372.00,0.0161
2371.75,0.0162
2371.50,0.0163
2371.25,0.0164
2371.00,0.0165
2370.75,0.0167
2370.50,0.0169
2370.25,0.0169
2370.00,0.0168
2369.75,0.0168
2369.50,0.0168
2369.25,0.0168
2369.00,0.0166
2368.75,0.0166
2368.50,0.0167
2368.25,0.0167
2368.00,0.0166
2367.75,0.0165
2367.50,0.0166
2367.25,0.0169
2367.00,0.0172
2366.75,0.0172
2366.50,0.0170
2366.25,0.0169
2366.00,0.0168
2365.75,0.0167
2365.50,0.0165
2365.25,0.0163
2365.00,0.0163
2364.75,0.0165
2364.50,0.0167
2364.25,0.0167
2364.00,0.0166
2363.75,0.0167
2363.50,0.0169
2363.25,0.0170
2363.00,0.0168
2362.75,0.0164
2362.50,0.0161
2362.25,0.0162
2362.00,0.0165
2361.75,0.0166
2361.50,0.0166
2361.25,0.0167
2361.00,0.0170
2360.75,0.0172
2360.50,0.0173
2360.25,0.0172
2360.00,0.0171
2359.75,0.0171
2359.50,0.0173
2359.25,0.0173
2359.00,0.0170
2358.75,0.0165
2358.50,0.0162
2358.25,0.0164
2358.00,0.0167
2357.75,0.0168
2357.50,0.0167
2357.25,0.0166
2357.00,0.0168
2356.75,0.0171
2356.50,0.0173
2356.25,0.0173
2356.00,0.0171
2355.75,0.0169
2355.50,0.0170
2355.25,0.0172
2355.00,0.0172
2354.75,0.0170
2354.50,0.0165
2354.25,0.0164
2354.00,0.0165
2353.75,0.0168
2353.50,0.0167
2353.25,0.0165
2353.00,0.0163
2352.75,0.0163
2352.50,0.0167
2352.25,0.0170
2352.00,0.0171
2351.75,0.0170
2351.50,0.0168
2351.25,0.0168
2351.00,0.0170
2350.75,0.0172
2350.50,0.0172
2350.25,0.0170
2350.00,0.0167
2349.75,0.0166
2349.50,0.0167
2349.25,0.0169
2349.00,0.0169
2348.75,0.0169
2348.50,0.0167
2348.25,0.0165
2348.00,0.0163
2347.75,0.0162
2347.50,0.0163
2347.25,0.0166
2347.00,0.0169
2346.75,0.0170
2346.50,0.0169
2346.25,0.0165
2346.00,0.0162
2345.75,0.0162
2345.50,0.0166
2345.25,0.0171
2345.00,0.0172
2344.75,0.0170
2344.50,0.0165
2344.25,0.0162
2344.00,0.0163
2343.75,0.0167
2343.50,0.0170
2343.25,0.0170
2343.00,0.0168
2342.75,0.0165
2342.50,0.0166
2342.25,0.0168
2342.00,0.0171
2341.75,0.0171
2341.50,0.0170
2341.25,0.0167
2341.00,0.0165
2340.75,0.0167
2340.50,0.0172
2340.25,0.0174
2340.00,0.0174
2339.75,0.0171
2339.50,0.0168
2339.25,0.0166
2339.00,0.0169
2338.75,0.0173
2338.50,0.0175
2338.25,0.0173
2338.00,0.0169
2337.75,0.0166
2337.50,0.0165
2337.25,0.0170
2337.00,0.0174
2336.75,0.0176
2336.50,0.0173
2336.25,0.0169
2336.00,0.0165
2335.75,0.0165
2335.50,0.0172
2335.25,0.0178
2335.00,0.0179
2334.75,0.0178
2334.50,0.0175
2334.25,0.0170
2334.00,0.0168
2333.75,0.0171
2333.50,0.0174
2333.25,0.0175
2333.00,0.0173
2332.75,0.0169
2332.50,0.0165
2332.25,0.0164
2332.00,0.0168
2331.75,0.0174
2331.50,0.0175
2331.25,0.0174
2331.00,0.0171
2330.75,0.0168
2330.50,0.0167
2330.25,0.0171
2330.00,0.0177
2329.75,0.0178
2329.50,0.0175
2329.25,0.0170
2329.00,0.0165
2328.75,0.0162
2328.50,0.0165
2328.25,0.0172
2328.00,0.0176
2327.75,0.0176
2327.50,0.0173
2327.25,0.0170
2327.00,0.0167
2326.75,0.0166
2326.50,0.0168
2326.25,0.0172
2326.00,0.0173
2325.75,0.0172
2325.50,0.0169
2325.25,0.0166
2325.00,0.0163
2324.75,0.0164
2324.50,0.0169
2324.25,0.0173
2324.00,0.0174
2323.75,0.0172
2323.50,0.0169
2323.25,0.0165
2323.00,0.0162
2322.75,0.0165
2322.50,0.0171
2322.25,0.0173
2322.00,0.0172
2321.75,0.0168
2321.50,0.0163
2321.25,0.0159
2321.00,0.0159
2320.75,0.0164
2320.50,0.0169
2320.25,0.0170
2320.00,0.0167
2319.75,0.0163
2319.50,0.0158
2319.25,0.0156
2319.00,0.0157
2318.75,0.0162
2318.50,0.0166
2318.25,0.0166
2318.00,0.0164
2317.75,0.0161
2317.50,0.0160
2317.25,0.0160
2317.00,0.0162
2316.75,0.0165
2316.50,0.0167
2316.25,0.0166
2316.00,0.0164
2315.75,0.0161
2315.50,0.0158
2315.25,0.0156
2315.00,0.0156
2314.75,0.0158
2314.50,0.0160
2314.25,0.0160
2314.00,0.0159
2313.75,0.0157
2313.50,0.0154
2313.25,0.0152
2313.00,0.0153
2312.75,0.0156
2312.50,0.0159
2312.25,0.0161
2312.00,0.0159
2311.75,0.0157
2311.50,0.0155
2311.25,0.0153
2311.00,0.0153
2310.75,0.0155
2310.50,0.0158
2310.25,0.0160
2310.00,0.0159
2309.75,0.0157
2309.50,0.0154
2309.25,0.0151
2309.00,0.0150
2308.75,0.0152
2308.50,0.0156
2308.25,0.0158
2308.00,0.0159
2307.75,0.0158
2307.50,0.0156
2307.25,0.0154
2307.00,0.0152
2306.75,0.0153
2306.50,0.0154
2306.25,0.0156
2306.00,0.0157
2305.75,0.0156
2305.50,0.0154
2305.25,0.0152
2305.00,0.0151
2304.75,0.0151
2304.50,0.0152
2304.25,0.0153
2304.00,0.0154
2303.75,0.0153
2303.50,0.0152
2303.25,0.0151
2303.00,0.0150
2302.75,0.0149
2302.50,0.0150
2302.25,0.0151
2302.00,0.0152
2301.75,0.0152
2301.50,0.0152
2301.25,0.0151
2301.00,0.0150
2300.75,0.0148
2300.50,0.0148
2300.25,0.0147
2300.00,0.0148
2299.75,0.0148
2299.50,0.0148
2299.25,0.0148
2299.00,0.0147
2298.75,0.0146
2298.50,0.0146
2298.25,0.0147
2298.00,0.0148
2297.75,0.0149
2297.50,0.0150
2297.25,0.0150
2297.00,0.0150
2296.75,0.0150
2296.50,0.0149
2296.25,0.0148
2296.00,0.0147
2295.75,0.0147
2295.50,0.0147
2295.25,0.0148
2295.00,0.0148
2294.75,0.0148
2294.50,0.0148
2294.25,0.0148
2294.00,0.0147
2293.75,0.0147
2293.50,0.0146
2293.25,0.0144
2293.00,0.0144
2292.75,0.0143
2292.50,0.0144
2292.25,0.0144
2292.00,0.0145
2291.75,0.0145
2291.50,0.0146
2291.25,0.0146
2291.00,0.0146
2290.75,0.0145
2290.50,0.0144
2290.25,0.0143
2290.00,0.0142
2289.75,0.0142
2289.50,0.0142
2289.25,0.0141
2289.00,0.0141
2288.75,0.0142
2288.50,0.0142
2288.25,0.0143
2288.00,0.0143
2287.75,0.0143
2287.50,0.0143
2287.25,0.0141
2287.00,0.0140
2286.75,0.0139
2286.50,0.0139
2286.25,0.0139
2286.00,0.0140
2285.75,0.0140
2285.50,0.0141
2285.25,0.0141
2285.00,0.0141
2284.75,0.0140
2284.50,0.0140
2284.25,0.0139
2284.00,0.0139
2283.75,0.0139
2283.50,0.0139
2283.25,0.0138
2283.00,0.0138
2282.75,0.0137
2282.50,0.0136
2282.25,0.0135
2282.00,0.0134
2281.75,0.0133
2281.50,0.0133
2281.25,0.0133
2281.00,0.0133
2280.75,0.0133
2280.50,0.0132
2280.25,0.0132
2280.00,0.0133
2279.75,0.0134
2279.50,0.0134
2279.25,0.0134
2279.00,0.0134
2278.75,0.0134
2278.50,0.0135
2278.25,0.0135
2278.00,0.0134
2277.75,0.0133
2277.50,0.0132
2277.25,0.0130
2277.00,0.0130
2276.75,0.0130
2276.50,0.0131
2276.25,0.0131
2276.00,0.0132
2275.75,0.0132
2275.50,0.0132
2275.25,0.0131
2275.00,0.0130
2274.75,0.0129
2274.50,0.0127
2274.25,0.0126
2274.00,0.0126
2273.75,0.0126
2273.50,0.0127
2273.25,0.0126
2273.00,0.0126
2272.75,0.0125
2272.50,0.0124
2272.25,0.0124
2272.00,0.0125
2271.75,0.0126
2271.50,0.0126
2271.25,0.0127
2271.00,0.0127
2270.75,0.0127
2270.50,0.0126
2270.25,0.0125
2270.00,0.0124
2269.75,0.0123
2269.50,0.0122
2269.25,0.0122
2269.00,0.0122
2268.75,0.0122
2268.50,0.0123
2268.25,0.0124
2268.00,0.0125
2267.75,0.0126
2267.50,0.0126
2267.25,0.0125
2267.00,0.0124
2266.75,0.0123
2266.50,0.0122
2266.25,0.0122
2266.00,0.0123
2265.75,0.0123
2265.50,0.0122
2265.25,0.0121
2265.00,0.0120
2264.75,0.0119
2264.50,0.0120
2264.25,0.0122
2264.00,0.0123
2263.75,0.0123
2263.50,0.0122
2263.25,0.0121
2263.00,0.0120
2262.75,0.0120
2262.50,0.0120
2262.25,0.0121
2262.00,0.0120
2261.75,0.0120
2261.50,0.0119
2261.25,0.0118
2261.00,0.0117
2260.75,0.0117
2260.50,0.0117
2260.25,0.0116
2260.00,0.0117
2259.75,0.0117
2259.50,0.0118
2259.25,0.0120
2259.00,0.0121
2258.75,0.0121
2258.50,0.0120
2258.25,0.0119
2258.00,0.0118
2257.75,0.0117
2257.50,0.0116
2257.25,0.0116
2257.00,0.0115
2256.75,0.0115
2256.50,0.0115
2256.25,0.0115
2256.00,0.0116
2255.75,0.0116
2255.50,0.0116
2255.25,0.0115
2255.00,0.0114
2254.75,0.0113
2254.50,0.0113
2254.25,0.0113
2254.00,0.0113
2253.75,0.0114
2253.50,0.0114
2253.25,0.0114
2253.00,0.0114
2252.75,0.0114
2252.50,0.0114
2252.25,0.0113
2252.00,0.0112
2251.75,0.0111
2251.50,0.0110
2251.25,0.0110
2251.00,0.0110
2250.75,0.0110
2250.50,0.0110
2250.25,0.0109
2250.00,0.0108
2249.75,0.0108
2249.50,0.0108
2249.25,0.0109
2249.00,0.0109
2248.75,0.0109
2248.50,0.0109
2248.25,0.0109
2248.00,0.0108
2247.75,0.0108
2247.50,0.0108
2247.25,0.0109
2247.00,0.0110
2246.75,0.0111
2246.50,0.0110
2246.25,0.0108
2246.00,0.0106
2245.75,0.0105
2245.50,0.0105
2245.25,0.0106
2245.00,0.0107
2244.75,0.0108
2244.50,0.0109
2244.25,0.0110
2244.00,0.0110
2243.75,0.0110
2243.50,0.0109
2243.25,0.0107
2243.00,0.0106
2242.75,0.0105
2242.50,0.0104
2242.25,0.0104
2242.00,0.0103
2241.75,0.0103
2241.50,0.0104
2241.25,0.0105
2241.00,0.0107
2240.75,0.0107
2240.50,0.0107
2240.25,0.0105
2240.00,0.0104
2239.75,0.0104
2239.50,0.0104
2239.25,0.0106
2239.00,0.0107
2238.75,0.0107
2238.50,0.0106
2238.25,0.0105
2238.00,0.0104
2237.75,0.0103
2237.50,0.0103
2237.25,0.0103
2237.00,0.0103
2236.75,0.0103
2236.50,0.0104
2236.25,0.0104
2236.00,0.0104
2235.75,0.0104
2235.50,0.0103
2235.25,0.0102
2235.00,0.0101
2234.75,0.0100
2234.50,0.0099
2234.25,0.0099
2234.00,0.0098
2233.75,0.0098
2233.50,0.0098
2233.25,0.0098
2233.00,0.0098
2232.75,0.0098
2232.50,0.0098
2232.25,0.0097
2232.00,0.0098
2231.75,0.0098
2231.50,0.0098
2231.25,0.0098
2231.00,0.0098
2230.75,0.0098
2230.50,0.0098
2230.25,0.0099
2230.00,0.0098
2229.75,0.0098
2229.50,0.0097
2229.25,0.0096
2229.00,0.0096
2228.75,0.0096
2228.50,0.0097
2228.25,0.0098
2228.00,0.0098
2227.75,0.0098
2227.50,0.0096
2227.25,0.0094
2227.00,0.0093
2226.75,0.0093
2226.50,0.0094
2226.25,0.0095
2226.00,0.0096
2225.75,0.0096
2225.50,0.0094
2225.25,0.0093
2225.00,0.0091
2224.75,0.0090
2224.50,0.0089
2224.25,0.0089
2224.00,0.0090
2223.75,0.0090
2223.50,0.0091
2223.25,0.0091
2223.00,0.0092
2222.75,0.0092
2222.50,0.0092
2222.25,0.0093
2222.00,0.0093
2221.75,0.0092
2221.50,0.0091
2221.25,0.0089
2221.00,0.0087
2220.75,0.0087
2220.50,0.0087
2220.25,0.0087
2220.00,0.0088
2219.75,0.0089
2219.50,0.0089
2219.25,0.0088
2219.00,0.0087
2218.75,0.0087
2218.50,0.0087
2218.25,0.0087
2218.00,0.0086
2217.75,0.0085
2217.50,0.0083
2217.25,0.0082
2217.00,0.0081
2216.75,0.0080
2216.50,0.0081
2216.25,0.0081
2216.00,0.0082
2215.75,0.0083
2215.50,0.0083
2215.25,0.0084
2215.00,0.0085
2214.75,0.0085
2214.50,0.0085
2214.25,0.0083
2214.00,0.0081
2213.75,0.0080
2213.50,0.0079
2213.25,0.0079
2213.00,0.0081
2212.75,0.0083
2212.50,0.0085
2212.25,0.0086
2212.00,0.0086
2211.75,0.0085
2211.50,0.0083
2211.25,0.0081
2211.00,0.0079
2210.75,0.0079
2210.50,0.0079
2210.25,0.0079
2210.00,0.0080
2209.75,0.0081
2209.50,0.0082
2209.25,0.0082
2209.00,0.0083
2208.75,0.0082
2208.50,0.0080
2208.25,0.0078
2208.00,0.0077
2207.75,0.0076
2207.50,0.0077
2207.25,0.0077
2207.00,0.0077
2206.75,0.0076
2206.50,0.0075
2206.25,0.0075
2206.00,0.0075
2205.75,0.0075
2205.50,0.0075
2205.25,0.0074
2205.00,0.0073
2204.75,0.0072
2204.50,0.0072
2204.25,0.0072
2204.00,0.0073
2203.75,0.0074
2203.50,0.0075
2203.25,0.0075
2203.00,0.0075
2202.75,0.0075
2202.50,0.0074
2202.25,0.0073
2202.00,0.0073
2201.75,0.0073
2201.50,0.0072
2201.25,0.0072
2201.00,0.0071
2200.75,0.0070
2200.50,0.0069
2200.25,0.0070
2200.00,0.0071
2199.75,0.0072
2199.50,0.0073
2199.25,0.0073
2199.00,0.0072
2198.75,0.0070
2198.50,0.0067
2198.25,0.0065
2198.00,0.0064
2197.75,0.0064
2197.50,0.0066
2197.25,0.0067
2197.00,0.0069
2196.75,0.0070
2196.50,0.0070
2196.25,0.0069
2196.00,0.0068
2195.75,0.0068
2195.50,0.0067
2195.25,0.0067
2195.00,0.0067
2194.75,0.0066
2194.50,0.0066
2194.25,0.0065
2194.00,0.0066
2193.75,0.0067
2193.50,0.0067
2193.25,0.0067
2193.00,0.0066
2192.75,0.0065
2192.50,0.0063
2192.25,0.0061
2192.00,0.0059
2191.75,0.0058
2191.50,0.0057
2191.25,0.0057
2191.00,0.0057
2190.75,0.0058
2190.50,0.0060
2190.25,0.0061
2190.00,0.0062
2189.75,0.0063
2189.50,0.0062
2189.25,0.0062
2189.00,0.0061
2188.75,0.0061
2188.50,0.0061
2188.25,0.0059
2188.00,0.0058
2187.75,0.0057
2187.50,0.0057
2187.25,0.0058
2187.00,0.0059
2186.75,0.0059
2186.50,0.0057
2186.25,0.0055
2186.00,0.0053
2185.75,0.0052
2185.50,0.0051
2185.25,0.0052
2185.00,0.0053
2184.75,0.0055
2184.50,0.0057
2184.25,0.0058
2184.00,0.0058
2183.75,0.0057
2183.50,0.0055
2183.25,0.0054
2183.00,0.0054
2182.75,0.0054
2182.50,0.0053
2182.25,0.0052
2182.00,0.0051
2181.75,0.0051
2181.50,0.0052
2181.25,0.0053
2181.00,0.0054
2180.75,0.0054
2180.50,0.0053
2180.25,0.0052
2180.00,0.0052
2179.75,0.0052
2179.50,0.0053
2179.25,0.0053
2179.00,0.0053
2178.75,0.0053
2178.50,0.0053
2178.25,0.0052
2178.00,0.0052
2177.75,0.0052
2177.50,0.0051
2177.25,0.0051
2177.00,0.0051
2176.75,0.0050
2176.50,0.0051
2176.25,0.0051
2176.00,0.0051
2175.75,0.0050
2175.50,0.0049
2175.25,0.0048
2175.00,0.0047
2174.75,0.0046
2174.50,0.0045
2174.25,0.0045
2174.00,0.0046
2173.75,0.0048
2173.50,0.0050
2173.25,0.0051
2173.00,0.0050
2172.75,0.0048
2172.50,0.0046
2172.25,0.0046
2172.00,0.0047
2171.75,0.0049
2171.50,0.0051
2171.25,0.0051
2171.00,0.0050
2170.75,0.0047
2170.50,0.0045
2170.25,0.0042
2170.00,0.0041
2169.75,0.0040
2169.50,0.0041
2169.25,0.0042
2169.00,0.0044
2168.75,0.0045
2168.50,0.0046
2168.25,0.0045
2168.00,0.0043
2167.75,0.0041
2167.50,0.0040
2167.25,0.0041
2167.00,0.0041
2166.75,0.0043
2166.50,0.0043
2166.25,0.0041
2166.00,0.0039
2165.75,0.0037
2165.50,0.0035
2165.25,0.0035
2165.00,0.0036
2164.75,0.0036
2164.50,0.0035
2164.25,0.0034
2164.00,0.0034
2163.75,0.0034
2163.50,0.0035
2163.25,0.0036
2163.00,0.0037
2162.75,0.0036
2162.50,0.0034
2162.25,0.0032
2162.00,0.0030
2161.75,0.0030
2161.50,0.0030
2161.25,0.0031
2161.00,0.0030
2160.75,0.0029
2160.50,0.0026
2160.25,0.0023
2160.00,0.0022
2159.75,0.0021
2159.50,0.0021
2159.25,0.0022
2159.00,0.0023
2158.75,0.0024
2158.50,0.0024
2158.25,0.0024
2158.00,0.0024
2157.75,0.0024
2157.50,0.0024
2157.25,0.0023
2157.00,0.0024
2156.75,0.0025
2156.50,0.0028
2156.25,0.0030
2156.00,0.0033
2155.75,0.0035
2155.50,0.0035
2155.25,0.0036
2155.00,0.0036
2154.75,0.0036
2154.50,0.0036
2154.25,0.0036
2154.00,0.0037
2153.75,0.0039
2153.50,0.0041
2153.25,0.0044
2153.00,0.0045
2152.75,0.0045
2152.50,0.0044
2152.25,0.0043
2152.00,0.0043
2151.75,0.0043
2151.50,0.0044
2151.25,0.0045
2151.00,0.0046
2150.75,0.0047
2150.50,0.0047
2150.25,0.0047
2150.00,0.0047
2149.75,0.0048
2149.50,0.0049
2149.25,0.0049
2149.00,0.0050
2148.75,0.0050
2148.50,0.0050
2148.25,0.0050
2148.00,0.0051
2147.75,0.0052
2147.50,0.0052
2147.25,0.0052
2147.00,0.0052
2146.75,0.0053
2146.50,0.0053
2146.25,0.0054
2146.00,0.0055
2145.75,0.0055
2145.50,0.0054
2145.25,0.0054
2145.00,0.0054
2144.75,0.0054
2144.50,0.0054
2144.25,0.0055
2144.00,0.0057
2143.75,0.0058
2143.50,0.0059
2143.25,0.0059
2143.00,0.0060
2142.75,0.0060
2142.50,0.0061
2142.25,0.0061
2142.00,0.0061
2141.75,0.0060
2141.50,0.0060
2141.25,0.0060
2141.00,0.0062
2140.75,0.0064
2140.50,0.0066
2140.25,0.0066
2140.00,0.0065
2139.75,0.0064
2139.50,0.0063
2139.25,0.0063
2139.00,0.0064
2138.75,0.0066
2138.50,0.0068
2138.25,0.0070
2138.00,0.0071
2137.75,0.0071
2137.50,0.0070
2137.25,0.0069
2137.00,0.0068
2136.75,0.0067
2136.50,0.0067
2136.25,0.0068
2136.00,0.0070
2135.75,0.0071
2135.50,0.0073
2135.25,0.0075
2135.00,0.0076
2134.75,0.0077
2134.50,0.0077
2134.25,0.0077
2134.00,0.0076
2133.75,0.0076
2133.50,0.0076
2133.25,0.0077
2133.00,0.0079
2132.75,0.0080
2132.50,0.0081
2132.25,0.0082
2132.00,0.0083
2131.75,0.0083
2131.50,0.0083
2131.25,0.0082
2131.00,0.0082
2130.75,0.0083
2130.50,0.0083
2130.25,0.0084
2130.00,0.0085
2129.75,0.0087
2129.50,0.0088
2129.25,0.0089
2129.00,0.0089
2128.75,0.0089
2128.50,0.0090
2128.25,0.0091
2128.00,0.0091
2127.75,0.0092
2127.50,0.0092
2127.25,0.0093
2127.00,0.0094
2126.75,0.0095
2126.50,0.0096
2126.25,0.0096
2126.00,0.0096
2125.75,0.0096
2125.50,0.0096
2125.25,0.0095
2125.00,0.0095
2124.75,0.0095
2124.50,0.0094
2124.25,0.0093
2124.00,0.0093
2123.75,0.0094
2123.50,0.0096
2123.25,0.0097
2123.00,0.0098
2122.75,0.0099
2122.50,0.0099
2122.25,0.0098
2122.00,0.0098
2121.75,0.0097
2121.50,0.0097
2121.25,0.0098
2121.00,0.0099
2120.75,0.0100
2120.50,0.0100
2120.25,0.0100
2120.00,0.0099
2119.75,0.0099
2119.50,0.0099
2119.25,0.0100
2119.00,0.0101
2118.75,0.0101
2118.50,0.0101
2118.25,0.0100
2118.00,0.0100
2117.75,0.0100
2117.50,0.0101
2117.25,0.0102
2117.00,0.0102
2116.75,0.0102
2116.50,0.0102
2116.25,0.0101
2116.00,0.0101
2115.75,0.0100
2115.50,0.0100
2115.25,0.0100
2115.00,0.0100
2114.75,0.0100
2114.50,0.0100
2114.25,0.0100
2114.00,0.0099
2113.75,0.0099
2113.50,0.0099
2113.25,0.0100
2113.00,0.0101
2112.75,0.0102
2112.50,0.0102
2112.25,0.0102
2112.00,0.0101
2111.75,0.0099
2111.50,0.0099
2111.25,0.0099
2111.00,0.0100
2110.75,0.0101
2110.50,0.0100
2110.25,0.0099
2110.00,0.0099
2109.75,0.0099
2109.50,0.0099
2109.25,0.0100
2109.00,0.0100
2108.75,0.0101
2108.50,0.0101
2108.25,0.0100
2108.00,0.0100
2107.75,0.0099
2107.50,0.0099
2107.25,0.0099
2107.00,0.0099
2106.75,0.0099
2106.50,0.0099
2106.25,0.0099
2106.00,0.0099
2105.75,0.0099
2105.50,0.0100
2105.25,0.0100
2105.00,0.0099
2104.75,0.0100
2104.50,0.0100
2104.25,0.0101
2104.00,0.0102
2103.75,0.0102
2103.50,0.0101
2103.25,0.0101
2103.00,0.0101
2102.75,0.0101
2102.50,0.0102
2102.25,0.0102
2102.00,0.0102
2101.75,0.0102
2101.50,0.0103
2101.25,0.0103
2101.00,0.0103
2100.75,0.0103
2100.50,0.0102
2100.25,0.0101
2100.00,0.0100
2099.75,0.0099
2099.50,0.0098
2099.25,0.0097
2099.00,0.0097
2098.75,0.0097
2098.50,0.0098
2098.25,0.0098
2098.00,0.0098
2097.75,0.0099
2097.50,0.0099
2097.25,0.0099
2097.00,0.0099
2096.75,0.0099
2096.50,0.0099
2096.25,0.0100
2096.00,0.0101
2095.75,0.0102
2095.50,0.0103
2095.25,0.0103
2095.00,0.0102
2094.75,0.0102
2094.50,0.0101
2094.25,0.0100
2094.00,0.0099
2093.75,0.0099
2093.50,0.0099
2093.25,0.0099
2093.00,0.0100
2092.75,0.0101
2092.50,0.0101
2092.25,0.0102
2092.00,0.0102
2091.75,0.0102
2091.50,0.0102
2091.25,0.0103
2091.00,0.0103
2090.75,0.0104
2090.50,0.0104
2090.25,0.0103
2090.00,0.0103
2089.75,0.0102
2089.50,0.0102
2089.25,0.0102
2089.00,0.0101
2088.75,0.0101
2088.50,0.0101
2088.25,0.0101
2088.00,0.0102
2087.75,0.0102
2087.50,0.0102
2087.25,0.0102
2087.00,0.0102
2086.75,0.0102
2086.50,0.0102
2086.25,0.0101
2086.00,0.0099
2085.75,0.0098
2085.50,0.0097
2085.25,0.0096
2085.00,0.0096
2084.75,0.0096
2084.50,0.0096
2084.25,0.0097
2084.00,0.0097
2083.75,0.0097
2083.50,0.0097
2083.25,0.0097
2083.00,0.0097
2082.75,0.0098
2082.50,0.0099
2082.25,0.0099
2082.00,0.0098
2081.75,0.0097
2081.50,0.0096
2081.25,0.0096
2081.00,0.0096
2080.75,0.0097
2080.50,0.0098
2080.25,0.0098
2080.00,0.0097
2079.75,0.0096
2079.50,0.0094
2079.25,0.0093
2079.00,0.0093
2078.75,0.0092
2078.50,0.0092
2078.25,0.0092
2078.00,0.0093
2077.75,0.0094
2077.50,0.0095
2077.25,0.0095
2077.00,0.0096
2076.75,0.0096
2076.50,0.0095
2076.25,0.0094
2076.00,0.0093
2075.75,0.0092
2075.50,0.0092
2075.25,0.0092
2075.00,0.0093
2074.75,0.0093
2074.50,0.0094
2074.25,0.0094
2074.00,0.0094
2073.75,0.0093
2073.50,0.0092
2073.25,0.0091
2073.00,0.0090
2072.75,0.0090
2072.50,0.0090
2072.25,0.0090
2072.00,0.0091
2071.75,0.0090
2071.50,0.0089
2071.25,0.0089
2071.00,0.0088
2070.75,0.0089
2070.50,0.0089
2070.25,0.0090
2070.00,0.0090
2069.75,0.0090
2069.50,0.0090
2069.25,0.0090
2069.00,0.0090
2068.75,0.0090
2068.50,0.0089
2068.25,0.0089
2068.00,0.0088
2067.75,0.0087
2067.50,0.0087
2067.25,0.0087
2067.00,0.0087
2066.75,0.0088
2066.50,0.0088
2066.25,0.0088
2066.00,0.0087
2065.75,0.0087
2065.50,0.0086
2065.25,0.0086
2065.00,0.0085
2064.75,0.0085
2064.50,0.0085
2064.25,0.0085
2064.00,0.0086
2063.75,0.0087
2063.50,0.0088
2063.25,0.0088
2063.00,0.0088
2062.75,0.0088
2062.50,0.0087
2062.25,0.0087
2062.00,0.0086
2061.75,0.0086
2061.50,0.0086
2061.25,0.0085
2061.00,0.0085
2060.75,0.0085
2060.50,0.0085
2060.25,0.0085
2060.00,0.0085
2059.75,0.0085
2059.50,0.0085
2059.25,0.0086
2059.00,0.0086
2058.75,0.0087
2058.50,0.0086
2058.25,0.0085
2058.00,0.0083
2057.75,0.0081
2057.50,0.0078
2057.25,0.0076
2057.00,0.0075
2056.75,0.0076
2056.50,0.0078
2056.25,0.0080
2056.00,0.0081
2055.75,0.0082
2055.50,0.0081
2055.25,0.0080
2055.00,0.0080
2054.75,0.0079
2054.50,0.0079
2054.25,0.0080
2054.00,0.0080
2053.75,0.0080
2053.50,0.0080
2053.25,0.0080
2053.00,0.0080
2052.75,0.0080
2052.50,0.0080
2052.25,0.0079
2052.00,0.0078
2051.75,0.0077
2051.50,0.0075
2051.25,0.0074
2051.00,0.0073
2050.75,0.0072
2050.50,0.0071
2050.25,0.0070
2050.00,0.0069
2049.75,0.0067
2049.50,0.0065
2049.25,0.0064
2049.00,0.0064
2048.75,0.0064
2048.50,0.0065
2048.25,0.0065
2048.00,0.0065
2047.75,0.0064
2047.50,0.0063
2047.25,0.0063
2047.00,0.0062
2046.75,0.0062
2046.50,0.0062
2046.25,0.0062
2046.00,0.0062
2045.75,0.0062
2045.50,0.0061
2045.25,0.0061
2045.00,0.0060
2044.75,0.0059
2044.50,0.0058
2044.25,0.0056
2044.00,0.0055
2043.75,0.0055
2043.50,0.0056
2043.25,0.0056
2043.00,0.0055
2042.75,0.0055
2042.50,0.0056
2042.25,0.0057
2042.00,0.0058
2041.75,0.0058
2041.50,0.0056
2041.25,0.0053
2041.00,0.0051
2040.75,0.0050
2040.50,0.0051
2040.25,0.0052
2040.00,0.0052
2039.75,0.0052
2039.50,0.0051
2039.25,0.0051
2039.00,0.0051
2038.75,0.0053
2038.50,0.0054
2038.25,0.0055
2038.00,0.0054
2037.75,0.0053
2037.50,0.0051
2037.25,0.0049
2037.00,0.0048
2036.75,0.0049
2036.50,0.0050
2036.25,0.0051
2036.00,0.0051
2035.75,0.0050
2035.50,0.0048
2035.25,0.0046
2035.00,0.0045
2034.75,0.0045
2034.50,0.0046
2034.25,0.0047
2034.00,0.0046
2033.75,0.0045
2033.50,0.0042
2033.25,0.0039
2033.00,0.0038
2032.75,0.0039
2032.50,0.0041
2032.25,0.0043
2032.00,0.0044
2031.75,0.0044
2031.50,0.0044
2031.25,0.0043
2031.00,0.0043
2030.75,0.0042
2030.50,0.0042
2030.25,0.0043
2030.00,0.0043
2029.75,0.0045
2029.50,0.0046
2029.25,0.0046
2029.00,0.0045
2028.75,0.0044
2028.50,0.0042
2028.25,0.0041
2028.00,0.0040
2027.75,0.0039
2027.50,0.0039
2027.25,0.0039
2027.00,0.0040
2026.75,0.0041
2026.50,0.0042
2026.25,0.0044
2026.00,0.0045
2025.75,0.0047
2025.50,0.0048
2025.25,0.0048
2025.00,0.0046
2024.75,0.0044
2024.50,0.0042
2024.25,0.0041
2024.00,0.0041
2023.75,0.0043
2023.50,0.0045
2023.25,0.0048
2023.00,0.0049
2022.75,0.0049
2022.50,0.0048
2022.25,0.0046
2022.00,0.0044
2021.75,0.0043
2021.50,0.0043
2021.25,0.0044
2021.00,0.0044
2020.75,0.0044
2020.50,0.0044
2020.25,0.0044
2020.00,0.0045
2019.75,0.0047
2019.50,0.0049
2019.25,0.0050
2019.00,0.0049
2018.75,0.0048
2018.50,0.0046
2018.25,0.0044
2018.00,0.0043
2017.75,0.0044
2017.50,0.0045
2017.25,0.0045
2017.00,0.0045
2016.75,0.0043
2016.50,0.0042
2016.25,0.0042
2016.00,0.0044
2015.75,0.0046
2015.50,0.0048
2015.25,0.0049
2015.00,0.0049
2014.75,0.0048
2014.50,0.0048
2014.25,0.0048
2014.00,0.0048
2013.75,0.0049
2013.50,0.0049
2013.25,0.0049
2013.00,0.0049
2012.75,0.0049
2012.50,0.0050
2012.25,0.0051
2012.00,0.0053
2011.75,0.0054
2011.50,0.0054
2011.25,0.0054
2011.00,0.0053
2010.75,0.0052
2010.50,0.0052
2010.25,0.0052
2010.00,0.0052
2009.75,0.0052
2009.50,0.0052
2009.25,0.0052
2009.00,0.0052
2008.75,0.0052
2008.50,0.0052
2008.25,0.0053
2008.00,0.0054
2007.75,0.0055
2007.50,0.0055
2007.25,0.0055
2007.00,0.0054
2006.75,0.0053
2006.50,0.0052
2006.25,0.0052
2006.00,0.0053
2005.75,0.0053
2005.50,0.0054
2005.25,0.0055
2005.00,0.0057
2004.75,0.0059
2004.50,0.0062
2004.25,0.0064
2004.00,0.0066
2003.75,0.0068
2003.50,0.0068
2003.25,0.0068
2003.00,0.0067
2002.75,0.0067
2002.50,0.0067
2002.25,0.0067
2002.00,0.0067
2001.75,0.0068
2001.50,0.0069
2001.25,0.0069
2001.00,0.0069
2000.75,0.0069
2000.50,0.0067
2000.25,0.0064
2000.00,0.0062
1999.75,0.0062
1999.50,0.0063
1999.25,0.0065
1999.00,0.0068
1998.75,0.0070
1998.50,0.0071
1998.25,0.0071
1998.00,0.0070
1997.75,0.0070
1997.50,0.0070
1997.25,0.0070
1997.00,0.0071
1996.75,0.0072
1996.50,0.0072
1996.25,0.0071
1996.00,0.0071
1995.75,0.0070
1995.50,0.0071
1995.25,0.0072
1995.00,0.0073
1994.75,0.0075
1994.50,0.0076
1994.25,0.0078
1994.00,0.0078
1993.75,0.0078
1993.50,0.0078
1993.25,0.0077
1993.00,0.0076
1992.75,0.0076
1992.50,0.0075
1992.25,0.0074
1992.00,0.0072
1991.75,0.0069
1991.50,0.0067
1991.25,0.0067
1991.00,0.0067
1990.75,0.0068
1990.50,0.0069
1990.25,0.0069
1990.00,0.0070
1989.75,0.0071
1989.50,0.0071
1989.25,0.0070
1989.00,0.0070
1988.75,0.0070
1988.50,0.0069
1988.25,0.0069
1988.00,0.0069
1987.75,0.0070
1987.50,0.0070
1987.25,0.0070
1987.00,0.0071
1986.75,0.0071
1986.50,0.0072
1986.25,0.0072
1986.00,0.0073
1985.75,0.0073
1985.50,0.0073
1985.25,0.0074
1985.00,0.0074
1984.75,0.0074
1984.50,0.0073
1984.25,0.0072
1984.00,0.0071
1983.75,0.0071
1983.50,0.0072
1983.25,0.0073
1983.00,0.0075
1982.75,0.0076
1982.50,0.0075
1982.25,0.0074
1982.00,0.0073
1981.75,0.0071
1981.50,0.0069
1981.25,0.0069
1981.00,0.0069
1980.75,0.0069
1980.50,0.0069
1980.25,0.0068
1980.00,0.0068
1979.75,0.0068
1979.50,0.0068
1979.25,0.0067
1979.00,0.0066
1978.75,0.0064
1978.50,0.0062
1978.25,0.0060
1978.00,0.0059
1977.75,0.0060
1977.50,0.0061
1977.25,0.0062
1977.00,0.0063
1976.75,0.0063
1976.50,0.0063
1976.25,0.0063
1976.00,0.0065
1975.75,0.0068
1975.50,0.0070
1975.25,0.0072
1975.00,0.0072
1974.75,0.0071
1974.50,0.0069
1974.25,0.0067
1974.00,0.0064
1973.75,0.0063
1973.50,0.0063
1973.25,0.0064
1973.00,0.0065
1972.75,0.0066
1972.50,0.0065
1972.25,0.0065
1972.00,0.0065
1971.75,0.0066
1971.50,0.0067
1971.25,0.0070
1971.00,0.0072
1970.75,0.0074
1970.50,0.0076
1970.25,0.0076
1970.00,0.0076
1969.75,0.0075
1969.50,0.0074
1969.25,0.0073
1969.00,0.0073
1968.75,0.0074
1968.50,0.0075
1968.25,0.0076
1968.00,0.0077
1967.75,0.0078
1967.50,0.0078
1967.25,0.0077
1967.00,0.0075
1966.75,0.0074
1966.50,0.0073
1966.25,0.0072
1966.00,0.0072
1965.75,0.0072
1965.50,0.0073
1965.25,0.0073
1965.00,0.0073
1964.75,0.0074
1964.50,0.0075
1964.25,0.0076
1964.00,0.0078
1963.75,0.0079
1963.50,0.0081
1963.25,0.0081
1963.00,0.0082
1962.75,0.0082
1962.50,0.0083
1962.25,0.0083
1962.00,0.0083
1961.75,0.0082
1961.50,0.0082
1961.25,0.0081
1961.00,0.0081
1960.75,0.0082
1960.50,0.0083
1960.25,0.0083
1960.00,0.0083
1959.75,0.0082
1959.50,0.0082
1959.25,0.0083
1959.00,0.0084
1958.75,0.0084
1958.50,0.0084
1958.25,0.0084
1958.00,0.0084
1957.75,0.0085
1957.50,0.0086
1957.25,0.0088
1957.00,0.0090
1956.75,0.0092
1956.50,0.0093
1956.25,0.0093
1956.00,0.0093
1955.75,0.0093
1955.50,0.0092
1955.25,0.0092
1955.00,0.0092
1954.75,0.0092
1954.50,0.0092
1954.25,0.0094
1954.00,0.0096
1953.75,0.0097
1953.50,0.0098
1953.25,0.0098
1953.00,0.0097
1952.75,0.0096
1952.50,0.0095
1952.25,0.0094
1952.00,0.0094
1951.75,0.0093
1951.50,0.0094
1951.25,0.0095
1951.00,0.0096
1950.75,0.0098
1950.50,0.0099
1950.25,0.0100
1950.00,0.0100
1949.75,0.0100
1949.50,0.0101
1949.25,0.0102
1949.00,0.0103
1948.75,0.0104
1948.50,0.0104
1948.25,0.0103
1948.00,0.0103
1947.75,0.0103
1947.50,0.0103
1947.25,0.0105
1947.00,0.0106
1946.75,0.0107
1946.50,0.0108
1946.25,0.0108
1946.00,0.0108
1945.75,0.0108
1945.50,0.0108
1945.25,0.0108
1945.00,0.0108
1944.75,0.0106
1944.50,0.0105
1944.25,0.0105
1944.00,0.0105
1943.75,0.0107
1943.50,0.0109
1943.25,0.0110
1943.00,0.0111
1942.75,0.0111
1942.50,0.0109
1942.25,0.0108
1942.00,0.0107
1941.75,0.0106
1941.50,0.0106
1941.25,0.0107
1941.00,0.0107
1940.75,0.0108
1940.50,0.0110
1940.25,0.0111
1940.00,0.0113
1939.75,0.0114
1939.50,0.0114
1939.25,0.0114
1939.00,0.0114
1938.75,0.0113
1938.50,0.0113
1938.25,0.0113
1938.00,0.0112
1937.75,0.0111
1937.50,0.0111
1937.25,0.0111
1937.00,0.0111
1936.75,0.0111
1936.50,0.0111
1936.25,0.0111
1936.00,0.0111
1935.75,0.0112
1935.50,0.0112
1935.25,0.0113
1935.00,0.0114
1934.75,0.0114
1934.50,0.0114
1934.25,0.0115
1934.00,0.0115
1933.75,0.0115
1933.50,0.0114
1933.25,0.0112
1933.00,0.0111
1932.75,0.0110
1932.50,0.0111
1932.25,0.0112
1932.00,0.0113
1931.75,0.0114
1931.50,0.0115
1931.25,0.0116
1931.00,0.0117
1930.75,0.0118
1930.50,0.0119
1930.25,0.0118
1930.00,0.0117
1929.75,0.0117
1929.50,0.0116
1929.25,0.0116
1929.00,0.0116
1928.75,0.0116
1928.50,0.0115
1928.25,0.0115
1928.00,0.0115
1927.75,0.0115
1927.50,0.0115
1927.25,0.0117
1927.00,0.0118
1926.75,0.0119
1926.50,0.0120
1926.25,0.0120
1926.00,0.0120
1925.75,0.0119
1925.50,0.0119
1925.25,0.0120
1925.00,0.0120
1924.75,0.0121
1924.50,0.0123
1924.25,0.0124
1924.00,0.0125
1923.75,0.0126
1923.50,0.0125
1923.25,0.0124
1923.00,0.0123
1922.75,0.0123
1922.50,0.0122
1922.25,0.0122
1922.00,0.0122
1921.75,0.0123
1921.50,0.0124
1921.25,0.0125
1921.00,0.0126
1920.75,0.0126
1920.50,0.0126
1920.25,0.0125
1920.00,0.0125
1919.75,0.0124
1919.50,0.0123
1919.25,0.0123
1919.00,0.0123
1918.75,0.0124
1918.50,0.0125
1918.25,0.0125
1918.00,0.0126
1917.75,0.0126
1917.50,0.0126
1917.25,0.0126
1917.00,0.0126
1916.75,0.0126
1916.50,0.0126
1916.25,0.0125
1916.00,0.0125
1915.75,0.0124
1915.50,0.0124
1915.25,0.0125
1915.00,0.0126
1914.75,0.0126
1914.50,0.0127
1914.25,0.0127
1914.00,0.0127
1913.75,0.0127
1913.50,0.0126
1913.25,0.0126
1913.00,0.0126
1912.75,0.0126
1912.50,0.0127
1912.25,0.0127
1912.00,0.0127
1911.75,0.0126
1911.50,0.0126
1911.25,0.0125
1911.00,0.0126
1910.75,0.0127
1910.50,0.0129
1910.25,0.0130
1910.00,0.0130
1909.75,0.0129
1909.50,0.0129
1909.25,0.0129
1909.00,0.0129
1908.75,0.0130
1908.50,0.0130
1908.25,0.0131
1908.00,0.0130
1907.75,0.0129
1907.50,0.0128
1907.25,0.0127
1907.00,0.0126
1906.75,0.0127
1906.50,0.0127
1906.25,0.0128
1906.00,0.0128
1905.75,0.0128
1905.50,0.0128
1905.25,0.0128
1905.00,0.0128
1904.75,0.0129
1904.50,0.0129
1904.25,0.0130
1904.00,0.0130
1903.75,0.0129
1903.50,0.0129
1903.25,0.0128
1903.00,0.0128
1902.75,0.0128
1902.50,0.0128
1902.25,0.0129
1902.00,0.0129
1901.75,0.0130
1901.50,0.0131
1901.25,0.0131
1901.00,0.0131
1900.75,0.0131
1900.50,0.0131
1900.25,0.0131
1900.00,0.0131
1899.75,0.0131
1899.50,0.0131
1899.25,0.0131
1899.00,0.0132
1898.75,0.0132
1898.50,0.0133
1898.25,0.0134
1898.00,0.0134
1897.75,0.0134
1897.50,0.0134
1897.25,0.0134
1897.00,0.0134
1896.75,0.0133
1896.50,0.0133
1896.25,0.0133
1896.00,0.0132
1895.75,0.0133
1895.50,0.0133
1895.25,0.0132
1895.00,0.0131
1894.75,0.0131
1894.50,0.0131
1894.25,0.0133
1894.00,0.0134
1893.75,0.0135
1893.50,0.0136
1893.25,0.0135
1893.00,0.0135
1892.75,0.0134
1892.50,0.0133
1892.25,0.0133
1892.00,0.0134
1891.75,0.0135
1891.50,0.0136
1891.25,0.0137
1891.00,0.0137
1890.75,0.0136
1890.50,0.0136
1890.25,0.0136
1890.00,0.0136
1889.75,0.0136
1889.50,0.0136
1889.25,0.0135
1889.00,0.0135
1888.75,0.0135
1888.50,0.0135
1888.25,0.0136
1888.00,0.0136
1887.75,0.0137
1887.50,0.0137
1887.25,0.0138
1887.00,0.0138
1886.75,0.0138
1886.50,0.0138
1886.25,0.0138
1886.00,0.0138
1885.75,0.0138
1885.50,0.0137
1885.25,0.0137
1885.00,0.0137
1884.75,0.0137
1884.50,0.0138
1884.25,0.0138
1884.00,0.0138
1883.75,0.0138
1883.50,0.0138
1883.25,0.0138
1883.00,0.0138
1882.75,0.0138
1882.50,0.0139
1882.25,0.0140
1882.00,0.0139
1881.75,0.0139
1881.50,0.0138
1881.25,0.0138
1881.00,0.0138
1880.75,0.0138
1880.50,0.0138
1880.25,0.0138
1880.00,0.0138
1879.75,0.0139
1879.50,0.0139
1879.25,0.0139
1879.00,0.0138
1878.75,0.0138
1878.50,0.0138
1878.25,0.0138
1878.00,0.0139
1877.75,0.0140
1877.50,0.0141
1877.25,0.0141
1877.00,0.0141
1876.75,0.0140
1876.50,0.0139
1876.25,0.0138
1876.00,0.0137
1875.75,0.0137
1875.50,0.0137
1875.25,0.0139
1875.00,0.0140
1874.75,0.0141
1874.50,0.0142
1874.25,0.0142
1874.00,0.0142
1873.75,0.0141
1873.50,0.0140
1873.25,0.0140
1873.00,0.0139
1872.75,0.0139
1872.50,0.0139
1872.25,0.0140
1872.00,0.0140
1871.75,0.0141
1871.50,0.0141
1871.25,0.0142
1871.00,0.0143
1870.75,0.0143
1870.50,0.0144
1870.25,0.0144
1870.00,0.0143
1869.75,0.0142
1869.50,0.0141
1869.25,0.0139
1869.00,0.0138
1868.75,0.0140
1868.50,0.0141
1868.25,0.0143
1868.00,0.0144
1867.75,0.0145
1867.50,0.0145
1867.25,0.0144
1867.00,0.0144
1866.75,0.0143
1866.50,0.0143
1866.25,0.0143
1866.00,0.0142
1865.75,0.0142
1865.50,0.0142
1865.25,0.0142
1865.00,0.0142
1864.75,0.0143
1864.50,0.0143
1864.25,0.0144
1864.00,0.0144
1863.75,0.0145
1863.50,0.0145
1863.25,0.0145
1863.00,0.0145
1862.75,0.0145
1862.50,0.0145
1862.25,0.0146
1862.00,0.0146
1861.75,0.0145
1861.50,0.0144
1861.25,0.0144
1861.00,0.0143
1860.75,0.0143
1860.50,0.0143
1860.25,0.0144
1860.00,0.0145
1859.75,0.0146
1859.50,0.0147
1859.25,0.0147
1859.00,0.0147
1858.75,0.0146
1858.50,0.0146
1858.25,0.0145
1858.00,0.0144
1857.75,0.0144
1857.50,0.0144
1857.25,0.0144
1857.00,0.0144
1856.75,0.0144
1856.50,0.0145
1856.25,0.0146
1856.00,0.0146
1855.75,0.0147
1855.50,0.0147
1855.25,0.0147
1855.00,0.0147
1854.75,0.0147
1854.50,0.0146
1854.25,0.0146
1854.00,0.0146
1853.75,0.0145
1853.50,0.0145
1853.25,0.0145
1853.00,0.0145
1852.75,0.0146
1852.50,0.0146
1852.25,0.0147
1852.00,0.0147
1851.75,0.0147
1851.50,0.0148
1851.25,0.0148
1851.00,0.0148
1850.75,0.0148
1850.50,0.0147
1850.25,0.0147
1850.00,0.0147
1849.75,0.0147
1849.50,0.0146
1849.25,0.0146
1849.00,0.0147
1848.75,0.0147
1848.50,0.0148
1848.25,0.0149
1848.00,0.0149
1847.75,0.0149
1847.50,0.0148
1847.25,0.0147
1847.00,0.0146
1846.75,0.0146
1846.50,0.0147
1846.25,0.0147
1846.00,0.0148
1845.75,0.0149
1845.50,0.0150
1845.25,0.0150
1845.00,0.0150
1844.75,0.0149
1844.50,0.0148
1844.25,0.0148
1844.00,0.0149
1843.75,0.0150
1843.50,0.0150
1843.25,0.0150
1843.00,0.0149
1842.75,0.0149
1842.50,0.0149
1842.25,0.0149
1842.00,0.0149
1841.75,0.0148
1841.50,0.0148
1841.25,0.0148
1841.00,0.0149
1840.75,0.0149
1840.50,0.0150
1840.25,0.0150
1840.00,0.0149
1839.75,0.0149
1839.50,0.0150
1839.25,0.0150
1839.00,0.0149
1838.75,0.0149
1838.50,0.0148
1838.25,0.0148
1838.00,0.0149
1837.75,0.0151
1837.50,0.0152
1837.25,0.0153
1837.00,0.0154
1836.75,0.0153
1836.50,0.0153
1836.25,0.0152
1836.00,0.0152
1835.75,0.0151
1835.50,0.0151
1835.25,0.0151
1835.00,0.0151
1834.75,0.0152
1834.50,0.0151
1834.25,0.0151
1834.00,0.0151
1833.75,0.0151
1833.50,0.0151
1833.25,0.0151
1833.00,0.0151
1832.75,0.0151
1832.50,0.0150
1832.25,0.0150
1832.00,0.0151
1831.75,0.0152
1831.50,0.0153
1831.25,0.0154
1831.00,0.0154
1830.75,0.0154
1830.50,0.0153
1830.25,0.0153
1830.00,0.0152
1829.75,0.0152
1829.50,0.0152
1829.25,0.0152
1829.00,0.0153
1828.75,0.0153
1828.50,0.0153
1828.25,0.0153
1828.00,0.0153
1827.75,0.0154
1827.50,0.0154
1827.25,0.0154
1827.00,0.0154
1826.75,0.0155
1826.50,0.0155
1826.25,0.0155
1826.00,0.0155
1825.75,0.0154
1825.50,0.0154
1825.25,0.0153
1825.00,0.0152
1824.75,0.0152
1824.50,0.0153
1824.25,0.0154
1824.00,0.0154
1823.75,0.0154
1823.50,0.0154
1823.25,0.0154
1823.00,0.0154
1822.75,0.0153
1822.50,0.0153
1822.25,0.0154
1822.00,0.0154
1821.75,0.0154
1821.50,0.0154
1821.25,0.0154
1821.00,0.0154
1820.75,0.0155
1820.50,0.0155
1820.25,0.0155
1820.00,0.0154
1819.75,0.0154
1819.50,0.0153
1819.25,0.0153
1819.00,0.0153
1818.75,0.0154
1818.50,0.0154
1818.25,0.0155
1818.00,0.0155
1817.75,0.0156
1817.50,0.0156
1817.25,0.0156
1817.00,0.0156
1816.75,0.0156
1816.50,0.0156
1816.25,0.0157
1816.00,0.0157
1815.75,0.0158
1815.50,0.0158
1815.25,0.0158
1815.00,0.0158
1814.75,0.0158
1814.50,0.0158
1814.25,0.0158
1814.00,0.0159
1813.75,0.0159
1813.50,0.0159
1813.25,0.0159
1813.00,0.0159
1812.75,0.0159
1812.50,0.0159
1812.25,0.0160
1812.00,0.0160
1811.75,0.0160
1811.50,0.0161
1811.25,0.0161
1811.00,0.0161
1810.75,0.0161
1810.50,0.0160
1810.25,0.0159
1810.00,0.0159
1809.75,0.0159
1809.50,0.0160
1809.25,0.0161
1809.00,0.0161
1808.75,0.0162
1808.50,0.0162
1808.25,0.0163
1808.00,0.0162
1807.75,0.0162
1807.50,0.0161
1807.25,0.0161
1807.00,0.0161
1806.75,0.0161
1806.50,0.0162
1806.25,0.0162
1806.00,0.0163
1805.75,0.0163
1805.50,0.0163
1805.25,0.0162
1805.00,0.0162
1804.75,0.0163
1804.50,0.0163
1804.25,0.0163
1804.00,0.0162
1803.75,0.0162
1803.50,0.0162
1803.25,0.0162
1803.00,0.0162
1802.75,0.0162
1802.50,0.0163
1802.25,0.0163
1802.00,0.0163
1801.75,0.0163
1801.50,0.0162
1801.25,0.0162
1801.00,0.0163
1800.75,0.0163
1800.50,0.0164
1800.25,0.0164
1800.00,0.0165
1799.75,0.0165
1799.50,0.0165
1799.25,0.0165
1799.00,0.0165
1798.75,0.0165
1798.50,0.0165
1798.25,0.0165
1798.00,0.0165
1797.75,0.0165
1797.50,0.0165
1797.25,0.0165
1797.00,0.0166
1796.75,0.0166
1796.50,0.0166
1796.25,0.0166
1796.00,0.0166
1795.75,0.0165
1795.50,0.0165
1795.25,0.0165
1795.00,0.0165
1794.75,0.0166
1794.50,0.0166
1794.25,0.0165
1794.00,0.0165
1793.75,0.0165
1793.50,0.0165
1793.25,0.0166
1793.00,0.0166
1792.75,0.0166
1792.50,0.0165
1792.25,0.0165
1792.00,0.0166
1791.75,0.0166
1791.50,0.0165
1791.25,0.0164
1791.00,0.0163
1790.75,0.0162
1790.50,0.0162
1790.25,0.0163
1790.00,0.0164
1789.75,0.0165
1789.50,0.0165
1789.25,0.0165
1789.00,0.0165
1788.75,0.0165
1788.50,0.0165
1788.25,0.0166
1788.00,0.0166
1787.75,0.0166
1787.50,0.0166
1787.25,0.0166
1787.00,0.0166
1786.75,0.0166
1786.50,0.0166
1786.25,0.0166
1786.00,0.0166
1785.75,0.0166
1785.50,0.0166
1785.25,0.0165
1785.00,0.0165
1784.75,0.0166
1784.50,0.0166
1784.25,0.0167
1784.00,0.0167
1783.75,0.0167
1783.50,0.0167
1783.25,0.0166
1783.00,0.0166
1782.75,0.0166
1782.50,0.0167
1782.25,0.0167
1782.00,0.0168
1781.75,0.0169
1781.50,0.0169
1781.25,0.0169
1781.00,0.0168
1780.75,0.0167
1780.50,0.0166
1780.25,0.0165
1780.00,0.0165
1779.75,0.0166
1779.50,0.0167
1779.25,0.0167
1779.00,0.0168
1778.75,0.0168
1778.50,0.0168
1778.25,0.0168
1778.00,0.0168
1777.75,0.0169
1777.50,0.0169
1777.25,0.0169
1777.00,0.0169
1776.75,0.0169
1776.50,0.0169
1776.25,0.0169
1776.00,0.0169
1775.75,0.0169
1775.50,0.0169
1775.25,0.0169
1775.00,0.0169
1774.75,0.0169
1774.50,0.0169
1774.25,0.0169
1774.00,0.0169
1773.75,0.0169
1773.50,0.0168
1773.25,0.0167
1773.00,0.0167
1772.75,0.0167
1772.50,0.0168
1772.25,0.0169
1772.00,0.0170
1771.75,0.0170
1771.50,0.0169
1771.25,0.0168
1771.00,0.0168
1770.75,0.0169
1770.50,0.0169
1770.25,0.0170
1770.00,0.0170
1769.75,0.0170
1769.50,0.0170
1769.25,0.0170
1769.00,0.0170
1768.75,0.0170
1768.50,0.0170
1768.25,0.0169
1768.00,0.0169
1767.75,0.0168
1767.50,0.0169
1767.25,0.0169
1767.00,0.0169
1766.75,0.0169
1766.50,0.0169
1766.25,0.0169
1766.00,0.0169
1765.75,0.0169
1765.50,0.0169
1765.25,0.0169
1765.00,0.0169
1764.75,0.0169
1764.50,0.0169
1764.25,0.0170
1764.00,0.0170
1763.75,0.0170
1763.50,0.0170
1763.25,0.0169
1763.00,0.0169
1762.75,0.0169
1762.50,0.0168
1762.25,0.0167
1762.00,0.0166
1761.75,0.0166
1761.50,0.0167
1761.25,0.0168
1761.00,0.0169
1760.75,0.0169
1760.50,0.0168
1760.25,0.0168
1760.00,0.0168
1759.75,0.0169
1759.50,0.0169
1759.25,0.0170
1759.00,0.0170
1758.75,0.0170
1758.50,0.0170
1758.25,0.0170
1758.00,0.0169
1757.75,0.0169
1757.50,0.0168
1757.25,0.0168
1757.00,0.0168
1756.75,0.0167
1756.50,0.0167
1756.25,0.0167
1756.00,0.0167
1755.75,0.0167
1755.50,0.0167
1755.25,0.0167
1755.00,0.0168
1754.75,0.0168
1754.50,0.0169
1754.25,0.0169
1754.00,0.0169
1753.75,0.0169
1753.50,0.0169
1753.25,0.0170
1753.00,0.0170
1752.75,0.0170
1752.50,0.0170
1752.25,0.0169
1752.00,0.0169
1751.75,0.0168
1751.50,0.0168
1751.25,0.0167
1751.00,0.0167
1750.75,0.0167
1750.50,0.0167
1750.25,0.0168
1750.00,0.0169
1749.75,0.0169
1749.50,0.0170
1749.25,0.0170
1749.00,0.0170
1748.75,0.0170
1748.50,0.0169
1748.25,0.0170
1748.00,0.0170
1747.75,0.0171
1747.50,0.0171
1747.25,0.0171
1747.00,0.0170
1746.75,0.0170
1746.50,0.0169
1746.25,0.0169
1746.00,0.0170
1745.75,0.0170
1745.50,0.0170
1745.25,0.0171
1745.00,0.0171
1744.75,0.0171
1744.50,0.0171
1744.25,0.0171
1744.00,0.0171
1743.75,0.0171
1743.50,0.0171
1743.25,0.0171
1743.00,0.0169
1742.75,0.0168
1742.50,0.0168
1742.25,0.0168
1742.00,0.0169
1741.75,0.0169
1741.50,0.0170
1741.25,0.0170
1741.00,0.0170
1740.75,0.0170
1740.50,0.0170
1740.25,0.0170
1740.00,0.0169
1739.75,0.0169
1739.50,0.0169
1739.25,0.0170
1739.00,0.0170
1738.75,0.0170
1738.50,0.0170
1738.25,0.0170
1738.00,0.0170
1737.75,0.0170
1737.50,0.0170
1737.25,0.0170
1737.00,0.0170
1736.75,0.0169
1736.50,0.0169
1736.25,0.0170
1736.00,0.0170
1735.75,0.0171
1735.50,0.0171
1735.25,0.0170
1735.00,0.0169
1734.75,0.0169
1734.50,0.0170
1734.25,0.0171
1734.00,0.0171
1733.75,0.0170
1733.50,0.0168
1733.25,0.0167
1733.00,0.0168
1732.75,0.0169
1732.50,0.0170
1732.25,0.0170
1732.00,0.0171
1731.75,0.0171
1731.50,0.0172
1731.25,0.0172
1731.00,0.0172
1730.75,0.0173
1730.50,0.0173
1730.25,0.0173
1730.00,0.0172
1729.75,0.0171
1729.50,0.0169
1729.25,0.0169
1729.00,0.0169
1728.75,0.0170
1728.50,0.0170
1728.25,0.0171
1728.00,0.0171
1727.75,0.0171
1727.50,0.0170
1727.25,0.0170
1727.00,0.0170
1726.75,0.0170
1726.50,0.0170
1726.25,0.0171
1726.00,0.0171
1725.75,0.0172
1725.50,0.0172
1725.25,0.0172
1725.00,0.0172
1724.75,0.0172
1724.50,0.0172
1724.25,0.0172
1724.00,0.0172
1723.75,0.0173
1723.50,0.0173
1723.25,0.0173
1723.00,0.0172
1722.75,0.0172
1722.50,0.0172
1722.25,0.0172
1722.00,0.0172
1721.75,0.0172
1721.50,0.0173
1721.25,0.0173
1721.00,0.0173
1720.75,0.0172
1720.50,0.0172
1720.25,0.0172
1720.00,0.0172
1719.75,0.0172
1719.50,0.0172
1719.25,0.0171
1719.00,0.0171
1718.75,0.0172
1718.50,0.0173
1718.25,0.0174
1718.00,0.0173
1717.75,0.0172
1717.50,0.0171
1717.25,0.0170
1717.00,0.0172
1716.75,0.0174
1716.50,0.0175
1716.25,0.0175
1716.00,0.0175
1715.75,0.0174
1715.50,0.0174
1715.25,0.0174
1715.00,0.0173
1714.75,0.0173
1714.50,0.0173
1714.25,0.0172
1714.00,0.0171
1713.75,0.0171
1713.50,0.0172
1713.25,0.0173
1713.00,0.0173
1712.75,0.0174
1712.50,0.0173
1712.25,0.0173
1712.00,0.0173
1711.75,0.0173
1711.50,0.0174
1711.25,0.0174
1711.00,0.0174
1710.75,0.0174
1710.50,0.0174
1710.25,0.0175
1710.00,0.0174
1709.75,0.0173
1709.50,0.0173
1709.25,0.0172
1709.00,0.0172
1708.75,0.0172
1708.50,0.0173
1708.25,0.0173
1708.00,0.0174
1707.75,0.0175
1707.50,0.0175
1707.25,0.0175
1707.00,0.0175
1706.75,0.0174
1706.50,0.0172
1706.25,0.0171
1706.00,0.0171
1705.75,0.0172
1705.50,0.0173
1705.25,0.0173
1705.00,0.0173
1704.75,0.0173
1704.50,0.0172
1704.25,0.0172
1704.00,0.0171
1703.75,0.0172
1703.50,0.0173
1703.25,0.0174
1703.00,0.0175
1702.75,0.0175
1702.50,0.0175
1702.25,0.0175
1702.00,0.0175
1701.75,0.0175
1701.50,0.0174
1701.25,0.0173
1701.00,0.0173
1700.75,0.0174
1700.50,0.0181
1700.25,0.0183
1700.00,0.0172
1699.75,0.0171
1699.50,0.0175
1699.25,0.0176
1699.00,0.0176
1698.75,0.0175
1698.50,0.0175
1698.25,0.0175
1698.00,0.0176
1697.75,0.0176
1697.50,0.0176
1697.25,0.0176
1697.00,0.0175
1696.75,0.0175
1696.50,0.0173
1696.25,0.0173
1696.00,0.0174
1695.75,0.0175
1695.50,0.0174
1695.25,0.0175
1695.00,0.0177
1694.75,0.0177
1694.50,0.0176
1694.25,0.0176
1694.00,0.0176
1693.75,0.0175
1693.50,0.0175
1693.25,0.0175
1693.00,0.0175
1692.75,0.0175
1692.50,0.0175
1692.25,0.0175
1692.00,0.0175
1691.75,0.0175
1691.50,0.0175
1691.25,0.0176
1691.00,0.0177
1690.75,0.0178
1690.50,0.0178
1690.25,0.0179
1690.00,0.0178
1689.75,0.0177
1689.50,0.0177
1689.25,0.0177
1689.00,0.0177
1688.75,0.0178
1688.50,0.0178
1688.25,0.0178
1688.00,0.0177
1687.75,0.0177
1687.50,0.0177
1687.25,0.0178
1687.00,0.0178
1686.75,0.0179
1686.50,0.0180
1686.25,0.0180
1686.00,0.0180
1685.75,0.0179
1685.50,0.0177
1685.25,0.0176
1685.00,0.0176
1684.75,0.0179
1684.50,0.0182
1684.25,0.0182
1684.00,0.0179
1683.75,0.0177
1683.50,0.0175
1683.25,0.0174
1683.00,0.0175
1682.75,0.0176
1682.50,0.0178
1682.25,0.0178
1682.00,0.0178
1681.75,0.0178
1681.50,0.0177
1681.25,0.0177
1681.00,0.0177
1680.75,0.0178
1680.50,0.0178
1680.25,0.0179
1680.00,0.0178
1679.75,0.0177
1679.50,0.0177
1679.25,0.0176
1679.00,0.0176
1678.75,0.0177
1678.50,0.0177
1678.25,0.0178
1678.00,0.0178
1677.75,0.0179
1677.50,0.0179
1677.25,0.0179
1677.00,0.0179
1676.75,0.0179
1676.50,0.0179
1676.25,0.0179
1676.00,0.0179
1675.75,0.0178
1675.50,0.0177
1675.25,0.0175
1675.00,0.0174
1674.75,0.0175
1674.50,0.0177
1674.25,0.0178
1674.00,0.0178
1673.75,0.0178
1673.50,0.0178
1673.25,0.0178
1673.00,0.0178
1672.75,0.0179
1672.50,0.0179
1672.25,0.0179
1672.00,0.0179
1671.75,0.0179
1671.50,0.0178
1671.25,0.0178
1671.00,0.0178
1670.75,0.0179
1670.50,0.0180
1670.25,0.0180
1670.00,0.0180
1669.75,0.0180
1669.50,0.0180
1669.25,0.0180
1669.00,0.0180
1668.75,0.0180
1668.50,0.0180
1668.25,0.0179
1668.00,0.0179
1667.75,0.0178
1667.50,0.0178
1667.25,0.0178
1667.00,0.0178
1666.75,0.0178
1666.50,0.0177
1666.25,0.0177
1666.00,0.0178
1665.75,0.0178
1665.50,0.0179
1665.25,0.0179
1665.00,0.0179
1664.75,0.0179
1664.50,0.0179
1664.25,0.0179
1664.00,0.0179
1663.75,0.0179
1663.50,0.0179
1663.25,0.0178
1663.00,0.0178
1662.75,0.0178
1662.50,0.0179
1662.25,0.0180
1662.00,0.0181
1661.75,0.0181
1661.50,0.0181
1661.25,0.0181
1661.00,0.0180
1660.75,0.0180
1660.50,0.0179
1660.25,0.0179
1660.00,0.0179
1659.75,0.0179
1659.50,0.0180
1659.25,0.0180
1659.00,0.0180
1658.75,0.0180
1658.50,0.0180
1658.25,0.0180
1658.00,0.0180
1657.75,0.0180
1657.50,0.0181
1657.25,0.0181
1657.00,0.0181
1656.75,0.0181
1656.50,0.0181
1656.25,0.0180
1656.00,0.0180
1655.75,0.0181
1655.50,0.0181
1655.25,0.0181
1655.00,0.0181
1654.75,0.0181
1654.50,0.0181
1654.25,0.0181
1654.00,0.0180
1653.75,0.0178
1653.50,0.0178
1653.25,0.0181
1653.00,0.0187
1652.75,0.0184
1652.50,0.0174
1652.25,0.0175
1652.00,0.0180
1651.75,0.0182
1651.50,0.0182
1651.25,0.0182
1651.00,0.0181
1650.75,0.0181
1650.50,0.0181
1650.25,0.0182
1650.00,0.0182
1649.75,0.0182
1649.50,0.0182
1649.25,0.0182
1649.00,0.0182
1648.75,0.0182
1648.50,0.0183
1648.25,0.0184
1648.00,0.0184
1647.75,0.0183
1647.50,0.0182
1647.25,0.0182
1647.00,0.0182
1646.75,0.0182
1646.50,0.0181
1646.25,0.0180
1646.00,0.0179
1645.75,0.0179
1645.50,0.0180
1645.25,0.0181
1645.00,0.0181
1644.75,0.0181
1644.50,0.0181
1644.25,0.0181
1644.00,0.0181
1643.75,0.0181
1643.50,0.0181
1643.25,0.0181
1643.00,0.0181
1642.75,0.0182
1642.50,0.0182
1642.25,0.0182
1642.00,0.0182
1641.75,0.0182
1641.50,0.0182
1641.25,0.0182
1641.00,0.0182
1640.75,0.0183
1640.50,0.0184
1640.25,0.0184
1640.00,0.0184
1639.75,0.0184
1639.50,0.0183
1639.25,0.0183
1639.00,0.0183
1638.75,0.0184
1638.50,0.0184
1638.25,0.0185
1638.00,0.0185
1637.75,0.0185
1637.50,0.0185
1637.25,0.0184
1637.00,0.0184
1636.75,0.0184
1636.50,0.0183
1636.25,0.0182
1636.00,0.0182
1635.75,0.0184
1635.50,0.0186
1635.25,0.0186
1635.00,0.0183
1634.75,0.0183
1634.50,0.0183
1634.25,0.0184
1634.00,0.0183
1633.75,0.0183
1633.50,0.0182
1633.25,0.0182
1633.00,0.0182
1632.75,0.0182
1632.50,0.0183
1632.25,0.0183
1632.00,0.0184
1631.75,0.0184
1631.50,0.0184
1631.25,0.0185
1631.00,0.0184
1630.75,0.0184
1630.50,0.0184
1630.25,0.0184
1630.00,0.0184
1629.75,0.0184
1629.50,0.0185
1629.25,0.0185
1629.00,0.0185
1628.75,0.0186
1628.50,0.0186
1628.25,0.0186
1628.00,0.0186
1627.75,0.0185
1627.50,0.0184
1627.25,0.0183
1627.00,0.0183
1626.75,0.0184
1626.50,0.0184
1626.25,0.0184
1626.00,0.0185
1625.75,0.0185
1625.50,0.0185
1625.25,0.0186
1625.00,0.0186
1624.75,0.0186
1624.50,0.0186
1624.25,0.0186
1624.00,0.0185
1623.75,0.0186
1623.50,0.0186
1623.25,0.0187
1623.00,0.0187
1622.75,0.0187
1622.50,0.0187
1622.25,0.0187
1622.00,0.0186
1621.75,0.0186
1621.50,0.0186
1621.25,0.0186
1621.00,0.0186
1620.75,0.0186
1620.50,0.0185
1620.25,0.0185
1620.00,0.0185
1619.75,0.0186
1619.50,0.0186
1619.25,0.0187
1619.00,0.0187
1618.75,0.0187
1618.50,0.0188
1618.25,0.0188
1618.00,0.0188
1617.75,0.0188
1617.50,0.0187
1617.25,0.0187
1617.00,0.0187
1616.75,0.0187
1616.50,0.0185
1616.25,0.0184
1616.00,0.0185
1615.75,0.0185
1615.50,0.0185
1615.25,0.0185
1615.00,0.0186
1614.75,0.0186
1614.50,0.0187
1614.25,0.0187
1614.00,0.0187
1613.75,0.0187
1613.50,0.0187
1613.25,0.0187
1613.00,0.0187
1612.75,0.0187
1612.50,0.0188
1612.25,0.0188
1612.00,0.0188
1611.75,0.0187
1611.50,0.0187
1611.25,0.0187
1611.00,0.0188
1610.75,0.0188
1610.50,0.0188
1610.25,0.0189
1610.00,0.0190
1609.75,0.0190
1609.50,0.0190
1609.25,0.0189
1609.00,0.0189
1608.75,0.0188
1608.50,0.0188
1608.25,0.0189
1608.00,0.0189
1607.75,0.0190
1607.50,0.0190
1607.25,0.0190
1607.00,0.0190
1606.75,0.0190
1606.50,0.0190
1606.25,0.0190
1606.00,0.0190
1605.75,0.0190
1605.50,0.0190
1605.25,0.0189
1605.00,0.0189
1604.75,0.0189
1604.50,0.0189
1604.25,0.0190
1604.00,0.0190
1603.75,0.0190
1603.50,0.0190
1603.25,0.0190
1603.00,0.0190
1602.75,0.0190
1602.50,0.0190
1602.25,0.0190
1602.00,0.0190
1601.75,0.0191
1601.50,0.0191
1601.25,0.0191
1601.00,0.0191
1600.75,0.0191
1600.50,0.0192
1600.25,0.0192
1600.00,0.0192
1599.75,0.0192
1599.50,0.0193
1599.25,0.0193
1599.00,0.0193
1598.75,0.0193
1598.50,0.0194
1598.25,0.0195
1598.00,0.0195
1597.75,0.0196
1597.50,0.0196
1597.25,0.0196
1597.00,0.0197
1596.75,0.0197
1596.50,0.0197
1596.25,0.0197
1596.00,0.0197
1595.75,0.0197
1595.50,0.0196
1595.25,0.0196
1595.00,0.0196
1594.75,0.0195
1594.50,0.0195
1594.25,0.0194
1594.00,0.0193
1593.75,0.0193
1593.50,0.0192
1593.25,0.0192
1593.00,0.0192
1592.75,0.0192
1592.50,0.0191
1592.25,0.0191
1592.00,0.0191
1591.75,0.0191
1591.50,0.0191
1591.25,0.0191
1591.00,0.0190
1590.75,0.0190
1590.50,0.0190
1590.25,0.0190
1590.00,0.0190
1589.75,0.0190
1589.50,0.0190
1589.25,0.0190
1589.00,0.0190
1588.75,0.0190
1588.50,0.0189
1588.25,0.0189
1588.00,0.0189
1587.75,0.0189
1587.50,0.0190
1587.25,0.0190
1587.00,0.0190
1586.75,0.0189
1586.50,0.0189
1586.25,0.0189
1586.00,0.0189
1585.75,0.0189
1585.50,0.0190
1585.25,0.0190
1585.00,0.0189
1584.75,0.0189
1584.50,0.0188
1584.25,0.0188
1584.00,0.0188
1583.75,0.0188
1583.50,0.0188
1583.25,0.0188
1583.00,0.0189
1582.75,0.0189
1582.50,0.0189
1582.25,0.0189
1582.00,0.0189
1581.75,0.0189
1581.50,0.0189
1581.25,0.0189
1581.00,0.0189
1580.75,0.0189
1580.50,0.0189
1580.25,0.0189
1580.00,0.0189
1579.75,0.0189
1579.50,0.0188
1579.25,0.0188
1579.00,0.0188
1578.75,0.0188
1578.50,0.0188
1578.25,0.0188
1578.00,0.0189
1577.75,0.0190
1577.50,0.0191
1577.25,0.0192
1577.00,0.0192
1576.75,0.0192
1576.50,0.0192
1576.25,0.0193
1576.00,0.0191
1575.75,0.0188
1575.50,0.0187
1575.25,0.0186
1575.00,0.0186
1574.75,0.0186
1574.50,0.0186
1574.25,0.0187
1574.00,0.0187
1573.75,0.0187
1573.50,0.0188
1573.25,0.0188
1573.00,0.0188
1572.75,0.0187
1572.50,0.0187
1572.25,0.0187
1572.00,0.0187
1571.75,0.0187
1571.50,0.0187
1571.25,0.0188
1571.00,0.0189
1570.75,0.0189
1570.50,0.0190
1570.25,0.0191
1570.00,0.0192
1569.75,0.0193
1569.50,0.0193
1569.25,0.0191
1569.00,0.0188
1568.75,0.0187
1568.50,0.0186
1568.25,0.0186
1568.00,0.0186
1567.75,0.0186
1567.50,0.0186
1567.25,0.0186
1567.00,0.0186
1566.75,0.0186
1566.50,0.0186
1566.25,0.0187
1566.00,0.0187
1565.75,0.0188
1565.50,0.0188
1565.25,0.0187
1565.00,0.0187
1564.75,0.0186
1564.50,0.0185
1564.25,0.0184
1564.00,0.0185
1563.75,0.0185
1563.50,0.0185
1563.25,0.0185
1563.00,0.0185
1562.75,0.0186
1562.50,0.0186
1562.25,0.0186
1562.00,0.0186
1561.75,0.0187
1561.50,0.0187
1561.25,0.0187
1561.00,0.0187
1560.75,0.0187
1560.50,0.0187
1560.25,0.0191
1560.00,0.0196
1559.75,0.0198
1559.50,0.0196
1559.25,0.0193
1559.00,0.0191
1558.75,0.0191
1558.50,0.0193
1558.25,0.0194
1558.00,0.0192
1557.75,0.0187
1557.50,0.0183
1557.25,0.0183
1557.00,0.0184
1556.75,0.0185
1556.50,0.0185
1556.25,0.0184
1556.00,0.0184
1555.75,0.0185
1555.50,0.0185
1555.25,0.0185
1555.00,0.0185
1554.75,0.0184
1554.50,0.0184
1554.25,0.0184
1554.00,0.0183
1553.75,0.0183
1553.50,0.0184
1553.25,0.0184
1553.00,0.0184
1552.75,0.0184
1552.50,0.0184
1552.25,0.0184
1552.00,0.0183
1551.75,0.0184
1551.50,0.0184
1551.25,0.0185
1551.00,0.0185
1550.75,0.0185
1550.50,0.0186
1550.25,0.0186
1550.00,0.0186
1549.75,0.0186
1549.50,0.0184
1549.25,0.0183
1549.00,0.0183
1548.75,0.0182
1548.50,0.0182
1548.25,0.0183
1548.00,0.0182
1547.75,0.0182
1547.50,0.0182
1547.25,0.0183
1547.00,0.0183
1546.75,0.0184
1546.50,0.0185
1546.25,0.0186
1546.00,0.0186
1545.75,0.0186
1545.50,0.0186
1545.25,0.0186
1545.00,0.0186
1544.75,0.0186
1544.50,0.0186
1544.25,0.0186
1544.00,0.0186
1543.75,0.0186
1543.50,0.0186
1543.25,0.0187
1543.00,0.0186
1542.75,0.0185
1542.50,0.0184
1542.25,0.0184
1542.00,0.0185
1541.75,0.0186
1541.50,0.0187
1541.25,0.0187
1541.00,0.0186
1540.75,0.0185
1540.50,0.0187
1540.25,0.0190
1540.00,0.0192
1539.75,0.0192
1539.50,0.0189
1539.25,0.0186
1539.00,0.0183
1538.75,0.0183
1538.50,0.0183
1538.25,0.0183
1538.00,0.0183
1537.75,0.0182
1537.50,0.0182
1537.25,0.0182
1537.00,0.0182
1536.75,0.0182
1536.50,0.0182
1536.25,0.0183
1536.00,0.0184
1535.75,0.0184
1535.50,0.0185
1535.25,0.0185
1535.00,0.0185
1534.75,0.0185
1534.50,0.0185
1534.25,0.0184
1534.00,0.0185
1533.75,0.0185
1533.50,0.0184
1533.25,0.0182
1533.00,0.0181
1532.75,0.0181
1532.50,0.0182
1532.25,0.0183
1532.00,0.0184
1531.75,0.0184
1531.50,0.0183
1531.25,0.0183
1531.00,0.0182
1530.75,0.0182
1530.50,0.0182
1530.25,0.0182
1530.00,0.0182
1529.75,0.0182
1529.50,0.0182
1529.25,0.0183
1529.00,0.0183
1528.75,0.0184
1528.50,0.0184
1528.25,0.0184
1528.00,0.0183
1527.75,0.0182
1527.50,0.0182
1527.25,0.0182
1527.00,0.0182
1526.75,0.0183
1526.50,0.0183
1526.25,0.0183
1526.00,0.0183
1525.75,0.0183
1525.50,0.0184
1525.25,0.0185
1525.00,0.0185
1524.75,0.0185
1524.50,0.0184
1524.25,0.0184
1524.00,0.0184
1523.75,0.0184
1523.50,0.0184
1523.25,0.0184
1523.00,0.0184
1522.75,0.0184
1522.50,0.0185
1522.25,0.0185
1522.00,0.0184
1521.75,0.0183
1521.50,0.0183
1521.25,0.0185
1521.00,0.0186
1520.75,0.0186
1520.50,0.0184
1520.25,0.0183
1520.00,0.0181
1519.75,0.0181
1519.50,0.0182
1519.25,0.0182
1519.00,0.0183
1518.75,0.0183
1518.50,0.0183
1518.25,0.0183
1518.00,0.0184
1517.75,0.0184
1517.50,0.0186
1517.25,0.0187
1517.00,0.0186
1516.75,0.0185
1516.50,0.0184
1516.25,0.0184
1516.00,0.0184
1515.75,0.0184
1515.50,0.0184
1515.25,0.0184
1515.00,0.0184
1514.75,0.0183
1514.50,0.0183
1514.25,0.0183
1514.00,0.0183
1513.75,0.0183
1513.50,0.0183
1513.25,0.0183
1513.00,0.0183
1512.75,0.0183
1512.50,0.0183
1512.25,0.0183
1512.00,0.0184
1511.75,0.0184
1511.50,0.0185
1511.25,0.0185
1511.00,0.0185
1510.75,0.0186
1510.50,0.0186
1510.25,0.0186
1510.00,0.0186
1509.75,0.0186
1509.50,0.0185
1509.25,0.0184
1509.00,0.0184
1508.75,0.0184
1508.50,0.0186
1508.25,0.0188
1508.00,0.0189
1507.75,0.0188
1507.50,0.0188
1507.25,0.0188
1507.00,0.0189
1506.75,0.0188
1506.50,0.0187
1506.25,0.0186
1506.00,0.0185
1505.75,0.0184
1505.50,0.0182
1505.25,0.0182
1505.00,0.0183
1504.75,0.0183
1504.50,0.0182
1504.25,0.0182
1504.00,0.0182
1503.75,0.0182
1503.50,0.0182
1503.25,0.0182
1503.00,0.0182
1502.75,0.0182
1502.50,0.0182
1502.25,0.0183
1502.00,0.0183
1501.75,0.0183
1501.50,0.0182
1501.25,0.0182
1501.00,0.0182
1500.75,0.0181
1500.50,0.0182
1500.25,0.0181
1500.00,0.0181
1499.75,0.0181
1499.50,0.0180
1499.25,0.0180
1499.00,0.0181
1498.75,0.0182
1498.50,0.0182
1498.25,0.0182
1498.00,0.0182
1497.75,0.0181
1497.50,0.0181
1497.25,0.0181
1497.00,0.0180
1496.75,0.0179
1496.50,0.0178
1496.25,0.0179
1496.00,0.0180
1495.75,0.0182
1495.50,0.0183
1495.25,0.0183
1495.00,0.0183
1494.75,0.0182
1494.50,0.0182
1494.25,0.0181
1494.00,0.0181
1493.75,0.0180
1493.50,0.0180
1493.25,0.0181
1493.00,0.0181
1492.75,0.0182
1492.50,0.0182
1492.25,0.0182
1492.00,0.0183
1491.75,0.0183
1491.50,0.0183
1491.25,0.0183
1491.00,0.0183
1490.75,0.0184
1490.50,0.0184
1490.25,0.0184
1490.00,0.0185
1489.75,0.0185
1489.50,0.0186
1489.25,0.0185
1489.00,0.0184
1488.75,0.0183
1488.50,0.0182
1488.25,0.0182
1488.00,0.0182
1487.75,0.0182
1487.50,0.0183
1487.25,0.0183
1487.00,0.0183
1486.75,0.0184
1486.50,0.0185
1486.25,0.0185
1486.00,0.0185
1485.75,0.0184
1485.50,0.0184
1485.25,0.0183
1485.00,0.0183
1484.75,0.0183
1484.50,0.0183
1484.25,0.0183
1484.00,0.0183
1483.75,0.0183
1483.50,0.0183
1483.25,0.0183
1483.00,0.0183
1482.75,0.0183
1482.50,0.0184
1482.25,0.0184
1482.00,0.0184
1481.75,0.0184
1481.50,0.0185
1481.25,0.0185
1481.00,0.0184
1480.75,0.0184
1480.50,0.0183
1480.25,0.0183
1480.00,0.0183
1479.75,0.0183
1479.50,0.0183
1479.25,0.0183
1479.00,0.0183
1478.75,0.0183
1478.50,0.0183
1478.25,0.0184
1478.00,0.0184
1477.75,0.0185
1477.50,0.0185
1477.25,0.0185
1477.00,0.0184
1476.75,0.0183
1476.50,0.0182
1476.25,0.0180
1476.00,0.0179
1475.75,0.0179
1475.50,0.0181
1475.25,0.0182
1475.00,0.0183
1474.75,0.0183
1474.50,0.0183
1474.25,0.0183
1474.00,0.0182
1473.75,0.0182
1473.50,0.0183
1473.25,0.0184
1473.00,0.0184
1472.75,0.0184
1472.50,0.0183
1472.25,0.0182
1472.00,0.0182
1471.75,0.0182
1471.50,0.0183
1471.25,0.0183
1471.00,0.0183
1470.75,0.0183
1470.50,0.0183
1470.25,0.0183
1470.00,0.0184
1469.75,0.0184
1469.50,0.0184
1469.25,0.0184
1469.00,0.0184
1468.75,0.0185
1468.50,0.0185
1468.25,0.0185
1468.00,0.0185
1467.75,0.0185
1467.50,0.0186
1467.25,0.0186
1467.00,0.0186
1466.75,0.0186
1466.50,0.0186
1466.25,0.0186
1466.00,0.0186
1465.75,0.0185
1465.50,0.0185
1465.25,0.0185
1465.00,0.0185
1464.75,0.0186
1464.50,0.0186
1464.25,0.0187
1464.00,0.0187
1463.75,0.0187
1463.50,0.0187
1463.25,0.0187
1463.00,0.0188
1462.75,0.0188
1462.50,0.0189
1462.25,0.0190
1462.00,0.0191
1461.75,0.0191
1461.50,0.0191
1461.25,0.0191
1461.00,0.0192
1460.75,0.0192
1460.50,0.0192
1460.25,0.0192
1460.00,0.0193
1459.75,0.0193
1459.50,0.0195
1459.25,0.0196
1459.00,0.0197
1458.75,0.0197
1458.50,0.0197
1458.25,0.0197
1458.00,0.0197
1457.75,0.0197
1457.50,0.0197
1457.25,0.0196
1457.00,0.0197
1456.75,0.0197
1456.50,0.0198
1456.25,0.0199
1456.00,0.0200
1455.75,0.0200
1455.50,0.0200
1455.25,0.0200
1455.00,0.0200
1454.75,0.0200
1454.50,0.0199
1454.25,0.0200
1454.00,0.0200
1453.75,0.0201
1453.50,0.0202
1453.25,0.0203
1453.00,0.0203
1452.75,0.0204
1452.50,0.0204
1452.25,0.0205
1452.00,0.0205
1451.75,0.0205
1451.50,0.0206
1451.25,0.0206
1451.00,0.0207
1450.75,0.0208
1450.50,0.0209
1450.25,0.0209
1450.00,0.0209
1449.75,0.0209
1449.50,0.0209
1449.25,0.0209
1449.00,0.0210
1448.75,0.0210
1448.50,0.0211
1448.25,0.0211
1448.00,0.0212
1447.75,0.0212
1447.50,0.0213
1447.25,0.0213
1447.00,0.0214
1446.75,0.0214
1446.50,0.0214
1446.25,0.0214
1446.00,0.0214
1445.75,0.0214
1445.50,0.0213
1445.25,0.0213
1445.00,0.0213
1444.75,0.0213
1444.50,0.0213
1444.25,0.0213
1444.00,0.0213
1443.75,0.0214
1443.50,0.0214
1443.25,0.0213
1443.00,0.0213
1442.75,0.0212
1442.50,0.0212
1442.25,0.0211
1442.00,0.0211
1441.75,0.0211
1441.50,0.0210
1441.25,0.0210
1441.00,0.0209
1440.75,0.0209
1440.50,0.0208
1440.25,0.0208
1440.00,0.0208
1439.75,0.0207
1439.50,0.0207
1439.25,0.0207
1439.00,0.0207
1438.75,0.0206
1438.50,0.0206
1438.25,0.0206
1438.00,0.0205
1437.75,0.0204
1437.50,0.0203
1437.25,0.0201
1437.00,0.0200
1436.75,0.0200
1436.50,0.0201
1436.25,0.0203
1436.00,0.0205
1435.75,0.0205
1435.50,0.0205
1435.25,0.0204
1435.00,0.0203
1434.75,0.0203
1434.50,0.0202
1434.25,0.0202
1434.00,0.0202
1433.75,0.0202
1433.50,0.0202
1433.25,0.0202
1433.00,0.0202
1432.75,0.0201
1432.50,0.0201
1432.25,0.0202
1432.00,0.0202
1431.75,0.0202
1431.50,0.0202
1431.25,0.0202
1431.00,0.0202
1430.75,0.0202
1430.50,0.0202
1430.25,0.0202
1430.00,0.0202
1429.75,0.0203
1429.50,0.0203
1429.25,0.0203
1429.00,0.0204
1428.75,0.0204
1428.50,0.0205
1428.25,0.0205
1428.00,0.0205
1427.75,0.0206
1427.50,0.0206
1427.25,0.0207
1427.00,0.0207
1426.75,0.0208
1426.50,0.0209
1426.25,0.0209
1426.00,0.0210
1425.75,0.0211
1425.50,0.0211
1425.25,0.0212
1425.00,0.0213
1424.75,0.0214
1424.50,0.0215
1424.25,0.0217
1424.00,0.0219
1423.75,0.0220
1423.50,0.0221
1423.25,0.0221
1423.00,0.0221
1422.75,0.0222
1422.50,0.0222
1422.25,0.0224
1422.00,0.0225
1421.75,0.0227
1421.50,0.0228
1421.25,0.0230
1421.00,0.0231
1420.75,0.0233
1420.50,0.0233
1420.25,0.0234
1420.00,0.0234
1419.75,0.0235
1419.50,0.0238
1419.25,0.0242
1419.00,0.0246
1418.75,0.0248
1418.50,0.0249
1418.25,0.0250
1418.00,0.0251
1417.75,0.0252
1417.50,0.0254
1417.25,0.0256
1417.00,0.0258
1416.75,0.0259
1416.50,0.0260
1416.25,0.0262
1416.00,0.0263
1415.75,0.0264
1415.50,0.0265
1415.25,0.0266
1415.00,0.0267
1414.75,0.0268
1414.50,0.0270
1414.25,0.0271
1414.00,0.0272
1413.75,0.0272
1413.50,0.0273
1413.25,0.0273
1413.00,0.0273
1412.75,0.0274
1412.50,0.0275
1412.25,0.0276
1412.00,0.0276
1411.75,0.0277
1411.50,0.0277
1411.25,0.0278
1411.00,0.0278
1410.75,0.0278
1410.50,0.0278
1410.25,0.0278
1410.00,0.0278
1409.75,0.0277
1409.50,0.0277
1409.25,0.0276
1409.00,0.0276
1408.75,0.0275
1408.50,0.0275
1408.25,0.0275
1408.00,0.0274
1407.75,0.0274
1407.50,0.0273
1407.25,0.0272
1407.00,0.0272
1406.75,0.0271
1406.50,0.0270
1406.25,0.0270
1406.00,0.0269
1405.75,0.0269
1405.50,0.0269
1405.25,0.0268
1405.00,0.0266
1404.75,0.0265
1404.50,0.0263
1404.25,0.0263
1404.00,0.0262
1403.75,0.0262
1403.50,0.0262
1403.25,0.0262
1403.00,0.0262
1402.75,0.0261
1402.50,0.0261
1402.25,0.0260
1402.00,0.0259
1401.75,0.0259
1401.50,0.0258
1401.25,0.0258
1401.00,0.0257
1400.75,0.0257
1400.50,0.0257
1400.25,0.0257
1400.00,0.0257
1399.75,0.0256
1399.50,0.0256
1399.25,0.0255
1399.00,0.0253
1398.75,0.0252
1398.50,0.0251
1398.25,0.0250
1398.00,0.0250
1397.75,0.0248
1397.50,0.0247
1397.25,0.0245
1397.00,0.0243
1396.75,0.0242
1396.50,0.0241
1396.25,0.0240
1396.00,0.0239
1395.75,0.0237
1395.50,0.0236
1395.25,0.0234
1395.00,0.0232
1394.75,0.0230
1394.50,0.0228
1394.25,0.0227
1394.00,0.0225
1393.75,0.0225
1393.50,0.0224
1393.25,0.0223
1393.00,0.0222
1392.75,0.0220
1392.50,0.0219
1392.25,0.0218
1392.00,0.0217
1391.75,0.0215
1391.50,0.0214
1391.25,0.0212
1391.00,0.0211
1390.75,0.0211
1390.50,0.0210
1390.25,0.0210
1390.00,0.0210
1389.75,0.0210
1389.50,0.0209
1389.25,0.0208
1389.00,0.0207
1388.75,0.0206
1388.50,0.0206
1388.25,0.0205
1388.00,0.0204
1387.75,0.0203
1387.50,0.0202
1387.25,0.0202
1387.00,0.0202
1386.75,0.0202
1386.50,0.0202
1386.25,0.0201
1386.00,0.0201
1385.75,0.0200
1385.50,0.0200
1385.25,0.0199
1385.00,0.0199
1384.75,0.0198
1384.50,0.0198
1384.25,0.0197
1384.00,0.0197
1383.75,0.0197
1383.50,0.0196
1383.25,0.0196
1383.00,0.0196
1382.75,0.0195
1382.50,0.0195
1382.25,0.0195
1382.00,0.0195
1381.75,0.0194
1381.50,0.0194
1381.25,0.0193
1381.00,0.0193
1380.75,0.0193
1380.50,0.0192
1380.25,0.0192
1380.00,0.0192
1379.75,0.0192
1379.50,0.0191
1379.25,0.0191
1379.00,0.0191
1378.75,0.0191
1378.50,0.0191
1378.25,0.0191
1378.00,0.0191
1377.75,0.0190
1377.50,0.0190
1377.25,0.0190
1377.00,0.0190
1376.75,0.0190
1376.50,0.0190
1376.25,0.0190
1376.00,0.0190
1375.75,0.0190
1375.50,0.0190
1375.25,0.0190
1375.00,0.0190
1374.75,0.0190
1374.50,0.0189
1374.25,0.0189
1374.00,0.0189
1373.75,0.0189
1373.50,0.0188
1373.25,0.0188
1373.00,0.0188
1372.75,0.0188
1372.50,0.0188
1372.25,0.0188
1372.00,0.0188
1371.75,0.0188
1371.50,0.0188
1371.25,0.0187
1371.00,0.0187
1370.75,0.0187
1370.50,0.0188
1370.25,0.0188
1370.00,0.0188
1369.75,0.0188
1369.50,0.0188
1369.25,0.0188
1369.00,0.0188
1368.75,0.0188
1368.50,0.0188
1368.25,0.0187
1368.00,0.0187
1367.75,0.0186
1367.50,0.0186
1367.25,0.0186
1367.00,0.0185
1366.75,0.0185
1366.50,0.0185
1366.25,0.0185
1366.00,0.0185
1365.75,0.0185
1365.50,0.0184
1365.25,0.0184
1365.00,0.0184
1364.75,0.0184
1364.50,0.0184
1364.25,0.0184
1364.00,0.0184
1363.75,0.0184
1363.50,0.0184
1363.25,0.0184
1363.00,0.0184
1362.75,0.0184
1362.50,0.0183
1362.25,0.0183
1362.00,0.0183
1361.75,0.0183
1361.50,0.0183
1361.25,0.0182
1361.00,0.0182
1360.75,0.0181
1360.50,0.0181
1360.25,0.0181
1360.00,0.0181
1359.75,0.0182
1359.50,0.0182
1359.25,0.0181
1359.00,0.0181
1358.75,0.0181
1358.50,0.0181
1358.25,0.0181
1358.00,0.0181
1357.75,0.0181
1357.50,0.0181
1357.25,0.0180
1357.00,0.0180
1356.75,0.0180
1356.50,0.0181
1356.25,0.0181
1356.00,0.0181
1355.75,0.0181
1355.50,0.0181
1355.25,0.0181
1355.00,0.0181
1354.75,0.0181
1354.50,0.0180
1354.25,0.0180
1354.00,0.0180
1353.75,0.0180
1353.50,0.0180
1353.25,0.0180
1353.00,0.0180
1352.75,0.0180
1352.50,0.0179
1352.25,0.0179
1352.00,0.0179
1351.75,0.0179
1351.50,0.0179
1351.25,0.0179
1351.00,0.0179
1350.75,0.0179
1350.50,0.0179
1350.25,0.0179
1350.00,0.0179
1349.75,0.0179
1349.50,0.0179
1349.25,0.0179
1349.00,0.0179
1348.75,0.0179
1348.50,0.0179
1348.25,0.0179
1348.00,0.0179
1347.75,0.0179
1347.50,0.0179
1347.25,0.0179
1347.00,0.0179
1346.75,0.0178
1346.50,0.0178
1346.25,0.0179
1346.00,0.0179
1345.75,0.0179
1345.50,0.0178
1345.25,0.0178
1345.00,0.0178
1344.75,0.0178
1344.50,0.0178
1344.25,0.0178
1344.00,0.0178
1343.75,0.0178
1343.50,0.0178
1343.25,0.0178
1343.00,0.0178
1342.75,0.0178
1342.50,0.0178
1342.25,0.0178
1342.00,0.0178
1341.75,0.0178
1341.50,0.0178
1341.25,0.0179
1341.00,0.0179
1340.75,0.0180
1340.50,0.0181
1340.25,0.0181
1340.00,0.0180
1339.75,0.0180
1339.50,0.0179
1339.25,0.0179
1339.00,0.0179
1338.75,0.0178
1338.50,0.0178
1338.25,0.0177
1338.00,0.0177
1337.75,0.0176
1337.50,0.0176
1337.25,0.0177
1337.00,0.0177
1336.75,0.0177
1336.50,0.0177
1336.25,0.0177
1336.00,0.0177
1335.75,0.0176
1335.50,0.0176
1335.25,0.0176
1335.00,0.0176
1334.75,0.0176
1334.50,0.0176
1334.25,0.0176
1334.00,0.0176
1333.75,0.0176
1333.50,0.0176
1333.25,0.0176
1333.00,0.0176
1332.75,0.0176
1332.50,0.0176
1332.25,0.0176
1332.00,0.0175
1331.75,0.0175
1331.50,0.0175
1331.25,0.0174
1331.00,0.0175
1330.75,0.0175
1330.50,0.0175
1330.25,0.0175
1330.00,0.0176
1329.75,0.0176
1329.50,0.0176
1329.25,0.0176
1329.00,0.0175
1328.75,0.0175
1328.50,0.0175
1328.25,0.0175
1328.00,0.0175
1327.75,0.0176
1327.50,0.0176
1327.25,0.0176
1327.00,0.0176
1326.75,0.0176
1326.50,0.0176
1326.25,0.0176
1326.00,0.0176
1325.75,0.0176
1325.50,0.0176
1325.25,0.0176
1325.00,0.0177
1324.75,0.0177
1324.50,0.0177
1324.25,0.0177
1324.00,0.0177
1323.75,0.0177
1323.50,0.0176
1323.25,0.0177
1323.00,0.0177
1322.75,0.0177
1322.50,0.0177
1322.25,0.0176
1322.00,0.0176
1321.75,0.0176
1321.50,0.0176
1321.25,0.0176
1321.00,0.0176
1320.75,0.0177
1320.50,0.0177
1320.25,0.0178
1320.00,0.0178
1319.75,0.0178
1319.50,0.0179
1319.25,0.0179
1319.00,0.0180
1318.75,0.0179
1318.50,0.0179
1318.25,0.0179
1318.00,0.0179
1317.75,0.0179
1317.50,0.0179
1317.25,0.0179
1317.00,0.0180
1316.75,0.0180
1316.50,0.0180
1316.25,0.0179
1316.00,0.0180
1315.75,0.0180
1315.50,0.0180
1315.25,0.0180
1315.00,0.0180
1314.75,0.0180
1314.50,0.0181
1314.25,0.0181
1314.00,0.0182
1313.75,0.0182
1313.50,0.0182
1313.25,0.0182
1313.00,0.0182
1312.75,0.0181
1312.50,0.0181
1312.25,0.0181
1312.00,0.0181
1311.75,0.0181
1311.50,0.0181
1311.25,0.0181
1311.00,0.0182
1310.75,0.0182
1310.50,0.0182
1310.25,0.0183
1310.00,0.0183
1309.75,0.0183
1309.50,0.0182
1309.25,0.0182
1309.00,0.0182
1308.75,0.0182
1308.50,0.0183
1308.25,0.0183
1308.00,0.0183
1307.75,0.0183
1307.50,0.0184
1307.25,0.0184
1307.00,0.0184
1306.75,0.0184
1306.50,0.0184
1306.25,0.0185
1306.00,0.0185
1305.75,0.0185
1305.50,0.0185
1305.25,0.0184
1305.00,0.0185
1304.75,0.0185
1304.50,0.0185
1304.25,0.0185
1304.00,0.0185
1303.75,0.0185
1303.50,0.0185
1303.25,0.0186
1303.00,0.0186
1302.75,0.0186
1302.50,0.0186
1302.25,0.0186
1302.00,0.0186
1301.75,0.0186
1301.50,0.0186
1301.25,0.0187
1301.00,0.0187
1300.75,0.0187
1300.50,0.0187
1300.25,0.0188
1300.00,0.0188
1299.75,0.0188
1299.50,0.0188
1299.25,0.0188
1299.00,0.0188
1298.75,0.0189
1298.50,0.0189
1298.25,0.0190
1298.00,0.0190
1297.75,0.0190
1297.50,0.0190
1297.25,0.0190
1297.00,0.0190
1296.75,0.0191
1296.50,0.0191
1296.25,0.0191
1296.00,0.0191
1295.75,0.0191
1295.50,0.0192
1295.25,0.0192
1295.00,0.0193
1294.75,0.0194
1294.50,0.0194
1294.25,0.0195
1294.00,0.0196
1293.75,0.0196
1293.50,0.0196
1293.25,0.0195
1293.00,0.0195
1292.75,0.0196
1292.50,0.0196
1292.25,0.0197
1292.00,0.0198
1291.75,0.0198
1291.50,0.0199
1291.25,0.0199
1291.00,0.0200
1290.75,0.0200
1290.50,0.0201
1290.25,0.0201
1290.00,0.0202
1289.75,0.0202
1289.50,0.0203
1289.25,0.0203
1289.00,0.0204
1288.75,0.0204
1288.50,0.0205
1288.25,0.0205
1288.00,0.0206
1287.75,0.0206
1287.50,0.0206
1287.25,0.0207
1287.00,0.0207
1286.75,0.0208
1286.50,0.0208
1286.25,0.0208
1286.00,0.0209
1285.75,0.0210
1285.50,0.0211
1285.25,0.0212
1285.00,0.0213
1284.75,0.0214
1284.50,0.0215
1284.25,0.0216
1284.00,0.0217
1283.75,0.0218
1283.50,0.0219
1283.25,0.0220
1283.00,0.0220
1282.75,0.0221
1282.50,0.0222
1282.25,0.0223
1282.00,0.0224
1281.75,0.0225
1281.50,0.0226
1281.25,0.0228
1281.00,0.0229
1280.75,0.0230
1280.50,0.0232
1280.25,0.0233
1280.00,0.0235
1279.75,0.0236
1279.50,0.0237
1279.25,0.0239
1279.00,0.0240
1278.75,0.0242
1278.50,0.0244
1278.25,0.0246
1278.00,0.0247
1277.75,0.0249
1277.50,0.0252
1277.25,0.0254
1277.00,0.0257
1276.75,0.0260
1276.50,0.0263
1276.25,0.0267
1276.00,0.0270
1275.75,0.0273
1275.50,0.0276
1275.25,0.0279
1275.00,0.0283
1274.75,0.0287
1274.50,0.0292
1274.25,0.0296
1274.00,0.0301
1273.75,0.0306
1273.50,0.0312
1273.25,0.0317
1273.00,0.0323
1272.75,0.0329
1272.50,0.0336
1272.25,0.0343
1272.00,0.0351
1271.75,0.0360
1271.50,0.0369
1271.25,0.0379
1271.00,0.0390
1270.75,0.0401
1270.50,0.0413
1270.25,0.0426
1270.00,0.0439
1269.75,0.0454
1269.50,0.0470
1269.25,0.0487
1269.00,0.0506
1268.75,0.0526
1268.50,0.0548
1268.25,0.0572
1268.00,0.0598
1267.75,0.0624
1267.50,0.0653
1267.25,0.0683
1267.00,0.0715
1266.75,0.0749
1266.50,0.0785
1266.25,0.0823
1266.00,0.0864
1265.75,0.0905
1265.50,0.0948
1265.25,0.0993
1265.00,0.1039
1264.75,0.1086
1264.50,0.1134
1264.25,0.1183
1264.00,0.1234
1263.75,0.1284
1263.50,0.1335
1263.25,0.1386
1263.00,0.1436
1262.75,0.1485
1262.50,0.1534
1262.25,0.1581
1262.00,0.1627
1261.75,0.1671
1261.50,0.1712
1261.25,0.1751
1261.00,0.1787
1260.75,0.1820
1260.50,0.1852
1260.25,0.1880
1260.00,0.1905
1259.75,0.1926
1259.50,0.1942
1259.25,0.1956
1259.00,0.1966
1258.75,0.1973
1258.50,0.1977
1258.25,0.1977
1258.00,0.1974
1257.75,0.1967
1257.50,0.1957
1257.25,0.1944
1257.00,0.1928
1256.75,0.1909
1256.50,0.1888
1256.25,0.1865
1256.00,0.1841
1255.75,0.1816
1255.50,0.1790
1255.25,0.1764
1255.00,0.1737
1254.75,0.1710
1254.50,0.1682
1254.25,0.1654
1254.00,0.1627
1253.75,0.1598
1253.50,0.1569
1253.25,0.1539
1253.00,0.1508
1252.75,0.1476
1252.50,0.1442
1252.25,0.1407
1252.00,0.1370
1251.75,0.1332
1251.50,0.1292
1251.25,0.1252
1251.00,0.1211
1250.75,0.1169
1250.50,0.1128
1250.25,0.1086
1250.00,0.1045
1249.75,0.1005
1249.50,0.0966
1249.25,0.0928
1249.00,0.0892
1248.75,0.0857
1248.50,0.0825
1248.25,0.0794
1248.00,0.0765
1247.75,0.0737
1247.50,0.0711
1247.25,0.0686
1247.00,0.0663
1246.75,0.0641
1246.50,0.0620
1246.25,0.0602
1246.00,0.0584
1245.75,0.0568
1245.50,0.0553
1245.25,0.0538
1245.00,0.0524
1244.75,0.0511
1244.50,0.0499
1244.25,0.0488
1244.00,0.0478
1243.75,0.0468
1243.50,0.0459
1243.25,0.0450
1243.00,0.0442
1242.75,0.0434
1242.50,0.0427
1242.25,0.0420
1242.00,0.0414
1241.75,0.0407
1241.50,0.0401
1241.25,0.0395
1241.00,0.0390
1240.75,0.0385
1240.50,0.0381
1240.25,0.0377
1240.00,0.0373
1239.75,0.0369
1239.50,0.0365
1239.25,0.0360
1239.00,0.0356
1238.75,0.0353
1238.50,0.0349
1238.25,0.0346
1238.00,0.0344
1237.75,0.0341
1237.50,0.0338
1237.25,0.0336
1237.00,0.0334
1236.75,0.0332
1236.50,0.0329
1236.25,0.0327
1236.00,0.0326
1235.75,0.0324
1235.50,0.0322
1235.25,0.0320
1235.00,0.0319
1234.75,0.0317
1234.50,0.0316
1234.25,0.0315
1234.00,0.0313
1233.75,0.0312
1233.50,0.0311
1233.25,0.0310
1233.00,0.0308
1232.75,0.0307
1232.50,0.0306
1232.25,0.0305
1232.00,0.0305
1231.75,0.0305
1231.50,0.0304
1231.25,0.0304
1231.00,0.0303
1230.75,0.0302
1230.50,0.0301
1230.25,0.0300
1230.00,0.0299
1229.75,0.0299
1229.50,0.0299
1229.25,0.0299
1229.00,0.0299
1228.75,0.0299
1228.50,0.0298
1228.25,0.0299
1228.00,0.0299
1227.75,0.0299
1227.50,0.0299
1227.25,0.0299
1227.00,0.0299
1226.75,0.0299
1226.50,0.0299
1226.25,0.0299
1226.00,0.0299
1225.75,0.0299
1225.50,0.0299
1225.25,0.0300
1225.00,0.0300
1224.75,0.0300
1224.50,0.0301
1224.25,0.0302
1224.00,0.0302
1223.75,0.0303
1223.50,0.0303
1223.25,0.0304
1223.00,0.0304
1222.75,0.0304
1222.50,0.0305
1222.25,0.0306
1222.00,0.0306
1221.75,0.0307
1221.50,0.0308
1221.25,0.0309
1221.00,0.0309
1220.75,0.0310
1220.50,0.0310
1220.25,0.0311
1220.00,0.0312
1219.75,0.0312
1219.50,0.0313
1219.25,0.0314
1219.00,0.0315
1218.75,0.0316
1218.50,0.0317
1218.25,0.0318
1218.00,0.0319
1217.75,0.0321
1217.50,0.0322
1217.25,0.0323
1217.00,0.0325
1216.75,0.0326
1216.50,0.0327
1216.25,0.0328
1216.00,0.0329
1215.75,0.0330
1215.50,0.0331
1215.25,0.0332
1215.00,0.0332
1214.75,0.0333
1214.50,0.0335
1214.25,0.0336
1214.00,0.0338
1213.75,0.0340
1213.50,0.0341
1213.25,0.0342
1213.00,0.0344
1212.75,0.0345
1212.50,0.0346
1212.25,0.0347
1212.00,0.0348
1211.75,0.0350
1211.50,0.0351
1211.25,0.0353
1211.00,0.0355
1210.75,0.0356
1210.50,0.0358
1210.25,0.0359
1210.00,0.0361
1209.75,0.0362
1209.50,0.0363
1209.25,0.0364
1209.00,0.0365
1208.75,0.0367
1208.50,0.0368
1208.25,0.0369
1208.00,0.0371
1207.75,0.0372
1207.50,0.0374
1207.25,0.0376
1207.00,0.0377
1206.75,0.0379
1206.50,0.0380
1206.25,0.0381
1206.00,0.0382
1205.75,0.0383
1205.50,0.0385
1205.25,0.0386
1205.00,0.0388
1204.75,0.0389
1204.50,0.0391
1204.25,0.0392
1204.00,0.0393
1203.75,0.0394
1203.50,0.0395
1203.25,0.0397
1203.00,0.0398
1202.75,0.0399
1202.50,0.0400
1202.25,0.0401
1202.00,0.0402
1201.75,0.0403
1201.50,0.0404
1201.25,0.0406
1201.00,0.0407
1200.75,0.0408
1200.50,0.0410
1200.25,0.0411
1200.00,0.0412
1199.75,0.0413
1199.50,0.0414
1199.25,0.0415
1199.00,0.0416
1198.75,0.0417
1198.50,0.0418
1198.25,0.0419
1198.00,0.0420
1197.75,0.0421
1197.50,0.0422
1197.25,0.0423
1197.00,0.0424
1196.75,0.0425
1196.50,0.0425
1196.25,0.0426
1196.00,0.0427
1195.75,0.0428
1195.50,0.0428
1195.25,0.0429
1195.00,0.0430
1194.75,0.0431
1194.50,0.0433
1194.25,0.0434
1194.00,0.0434
1193.75,0.0435
1193.50,0.0435
1193.25,0.0435
1193.00,0.0436
1192.75,0.0436
1192.50,0.0436
1192.25,0.0437
1192.00,0.0437
1191.75,0.0438
1191.50,0.0438
1191.25,0.0439
1191.00,0.0439
1190.75,0.0439
1190.50,0.0440
1190.25,0.0441
1190.00,0.0441
1189.75,0.0442
1189.50,0.0442
1189.25,0.0443
1189.00,0.0443
1188.75,0.0443
1188.50,0.0443
1188.25,0.0443
1188.00,0.0444
1187.75,0.0445
1187.50,0.0446
1187.25,0.0446
1187.00,0.0446
1186.75,0.0447
1186.50,0.0447
1186.25,0.0447
1186.00,0.0447
1185.75,0.0447
1185.50,0.0447
1185.25,0.0447
1185.00,0.0448
1184.75,0.0448
1184.50,0.0448
1184.25,0.0448
1184.00,0.0449
1183.75,0.0449
1183.50,0.0449
1183.25,0.0450
1183.00,0.0449
1182.75,0.0449
1182.50,0.0449
1182.25,0.0450
1182.00,0.0450
1181.75,0.0451
1181.50,0.0451
1181.25,0.0451
1181.00,0.0451
1180.75,0.0451
1180.50,0.0451
1180.25,0.0451
1180.00,0.0451
1179.75,0.0452
1179.50,0.0452
1179.25,0.0452
1179.00,0.0452
1178.75,0.0452
1178.50,0.0452
1178.25,0.0452
1178.00,0.0452
1177.75,0.0452
1177.50,0.0452
1177.25,0.0452
1177.00,0.0452
1176.75,0.0452
1176.50,0.0453
1176.25,0.0453
1176.00,0.0454
1175.75,0.0454
1175.50,0.0454
1175.25,0.0454
1175.00,0.0454
1174.75,0.0454
1174.50,0.0455
1174.25,0.0455
1174.00,0.0455
1173.75,0.0455
1173.50,0.0455
1173.25,0.0455
1173.00,0.0455
1172.75,0.0456
1172.50,0.0457
1172.25,0.0457
1172.00,0.0458
1171.75,0.0457
1171.50,0.0457
1171.25,0.0457
1171.00,0.0457
1170.75,0.0457
1170.50,0.0457
1170.25,0.0458
1170.00,0.0458
1169.75,0.0458
1169.50,0.0458
1169.25,0.0458
1169.00,0.0458
1168.75,0.0458
1168.50,0.0459
1168.25,0.0459
1168.00,0.0460
1167.75,0.0460
1167.50,0.0459
1167.25,0.0459
1167.00,0.0458
1166.75,0.0458
1166.50,0.0458
1166.25,0.0458
1166.00,0.0458
1165.75,0.0458
1165.50,0.0458
1165.25,0.0458
1165.00,0.0459
1164.75,0.0459
1164.50,0.0459
1164.25,0.0460
1164.00,0.0461
1163.75,0.0461
1163.50,0.0461
1163.25,0.0461
1163.00,0.0461
1162.75,0.0461
1162.50,0.0461
1162.25,0.0462
1162.00,0.0462
1161.75,0.0462
1161.50,0.0462
1161.25,0.0462
1161.00,0.0463
1160.75,0.0463
1160.50,0.0464
1160.25,0.0464
1160.00,0.0464
1159.75,0.0465
1159.50,0.0464
1159.25,0.0464
1159.00,0.0465
1158.75,0.0465
1158.50,0.0465
1158.25,0.0465
1158.00,0.0466
1157.75,0.0467
1157.50,0.0468
1157.25,0.0469
1157.00,0.0469
1156.75,0.0470
1156.50,0.0470
1156.25,0.0470
1156.00,0.0470
1155.75,0.0471
1155.50,0.0471
1155.25,0.0472
1155.00,0.0473
1154.75,0.0473
1154.50,0.0473
1154.25,0.0474
1154.00,0.0474
1153.75,0.0475
1153.50,0.0476
1153.25,0.0477
1153.00,0.0477
1152.75,0.0477
1152.50,0.0477
1152.25,0.0478
1152.00,0.0478
1151.75,0.0479
1151.50,0.0480
1151.25,0.0481
1151.00,0.0482
1150.75,0.0482
1150.50,0.0483
1150.25,0.0484
1150.00,0.0485
1149.75,0.0486
1149.50,0.0487
1149.25,0.0488
1149.00,0.0489
1148.75,0.0490
1148.50,0.0492
1148.25,0.0493
1148.00,0.0494
1147.75,0.0494
1147.50,0.0495
1147.25,0.0496
1147.00,0.0497
1146.75,0.0498
1146.50,0.0500
1146.25,0.0501
1146.00,0.0502
1145.75,0.0504
1145.50,0.0505
1145.25,0.0505
1145.00,0.0506
1144.75,0.0507
1144.50,0.0508
1144.25,0.0510
1144.00,0.0512
1143.75,0.0514
1143.50,0.0515
1143.25,0.0516
1143.00,0.0518
1142.75,0.0519
1142.50,0.0521
1142.25,0.0522
1142.00,0.0524
1141.75,0.0526
1141.50,0.0527
1141.25,0.0529
1141.00,0.0531
1140.75,0.0532
1140.50,0.0535
1140.25,0.0537
1140.00,0.0539
1139.75,0.0541
1139.50,0.0542
1139.25,0.0544
1139.00,0.0545
1138.75,0.0547
1138.50,0.0549
1138.25,0.0551
1138.00,0.0553
1137.75,0.0555
1137.50,0.0557
1137.25,0.0559
1137.00,0.0561
1136.75,0.0562
1136.50,0.0564
1136.25,0.0566
1136.00,0.0569
1135.75,0.0571
1135.50,0.0574
1135.25,0.0576
1135.00,0.0578
1134.75,0.0581
1134.50,0.0583
1134.25,0.0586
1134.00,0.0589
1133.75,0.0591
1133.50,0.0594
1133.25,0.0597
1133.00,0.0600
1132.75,0.0603
1132.50,0.0606
1132.25,0.0608
1132.00,0.0610
1131.75,0.0613
1131.50,0.0616
1131.25,0.0619
1131.00,0.0622
1130.75,0.0625
1130.50,0.0628
1130.25,0.0631
1130.00,0.0635
1129.75,0.0639
1129.50,0.0643
1129.25,0.0646
1129.00,0.0650
1128.75,0.0653
1128.50,0.0657
1128.25,0.0660
1128.00,0.0664
1127.75,0.0669
1127.50,0.0673
1127.25,0.0678
1127.00,0.0682
1126.75,0.0687
1126.50,0.0691
1126.25,0.0695
1126.00,0.0700
1125.75,0.0706
1125.50,0.0711
1125.25,0.0716
1125.00,0.0720
1124.75,0.0725
1124.50,0.0730
1124.25,0.0735
1124.00,0.0741
1123.75,0.0747
1123.50,0.0753
1123.25,0.0759
1123.00,0.0765
1122.75,0.0771
1122.50,0.0777
1122.25,0.0783
1122.00,0.0789
1121.75,0.0795
1121.50,0.0801
1121.25,0.0808
1121.00,0.0815
1120.75,0.0822
1120.50,0.0829
1120.25,0.0836
1120.00,0.0843
1119.75,0.0850
1119.50,0.0858
1119.25,0.0865
1119.00,0.0873
1118.75,0.0881
1118.50,0.0889
1118.25,0.0897
1118.00,0.0904
1117.75,0.0912
1117.50,0.0920
1117.25,0.0928
1117.00,0.0937
1116.75,0.0946
1116.50,0.0956
1116.25,0.0966
1116.00,0.0975
1115.75,0.0985
1115.50,0.0995
1115.25,0.1004
1115.00,0.1014
1114.75,0.1024
1114.50,0.1034
1114.25,0.1044
1114.00,0.1054
1113.75,0.1065
1113.50,0.1075
1113.25,0.1085
1113.00,0.1095
1112.75,0.1105
1112.50,0.1115
1112.25,0.1126
1112.00,0.1138
1111.75,0.1150
1111.50,0.1162
1111.25,0.1173
1111.00,0.1185
1110.75,0.1197
1110.50,0.1209
1110.25,0.1221
1110.00,0.1233
1109.75,0.1245
1109.50,0.1257
1109.25,0.1269
1109.00,0.1281
1108.75,0.1294
1108.50,0.1307
1108.25,0.1320
1108.00,0.1334
1107.75,0.1347
1107.50,0.1360
1107.25,0.1373
1107.00,0.1386
1106.75,0.1399
1106.50,0.1412
1106.25,0.1425
1106.00,0.1439
1105.75,0.1453
1105.50,0.1468
1105.25,0.1482
1105.00,0.1496
1104.75,0.1510
1104.50,0.1524
1104.25,0.1539
1104.00,0.1554
1103.75,0.1569
1103.50,0.1584
1103.25,0.1599
1103.00,0.1614
1102.75,0.1629
1102.50,0.1645
1102.25,0.1660
1102.00,0.1676
1101.75,0.1691
1101.50,0.1707
1101.25,0.1723
1101.00,0.1739
1100.75,0.1755
1100.50,0.1771
1100.25,0.1787
1100.00,0.1804
1099.75,0.1820
1099.50,0.1835
1099.25,0.1851
1099.00,0.1867
1098.75,0.1883
1098.50,0.1899
1098.25,0.1915
1098.00,0.1931
1097.75,0.1946
1097.50,0.1963
1097.25,0.1980
1097.00,0.1997
1096.75,0.2015
1096.50,0.2032
1096.25,0.2048
1096.00,0.2064
1095.75,0.2080
1095.50,0.2096
1095.25,0.2112
1095.00,0.2128
1094.75,0.2145
1094.50,0.2161
1094.25,0.2178
1094.00,0.2196
1093.75,0.2213
1093.50,0.2229
1093.25,0.2245
1093.00,0.2261
1092.75,0.2277
1092.50,0.2293
1092.25,0.2310
1092.00,0.2327
1091.75,0.2343
1091.50,0.2360
1091.25,0.2376
1091.00,0.2391
1090.75,0.2406
1090.50,0.2422
1090.25,0.2437
1090.00,0.2453
1089.75,0.2468
1089.50,0.2483
1089.25,0.2499
1089.00,0.2514
1088.75,0.2530
1088.50,0.2546
1088.25,0.2562
1088.00,0.2577
1087.75,0.2592
1087.50,0.2606
1087.25,0.2619
1087.00,0.2632
1086.75,0.2645
1086.50,0.2658
1086.25,0.2672
1086.00,0.2686
1085.75,0.2700
1085.50,0.2713
1085.25,0.2725
1085.00,0.2738
1084.75,0.2750
1084.50,0.2762
1084.25,0.2775
1084.00,0.2787
1083.75,0.2799
1083.50,0.2810
1083.25,0.2822
1083.00,0.2833
1082.75,0.2844
1082.50,0.2855
1082.25,0.2866
1082.00,0.2877
1081.75,0.2887
1081.50,0.2898
1081.25,0.2908
1081.00,0.2918
1080.75,0.2928
1080.50,0.2938
1080.25,0.2948
1080.00,0.2956
1079.75,0.2964
1079.50,0.2971
1079.25,0.2979
1079.00,0.2988
1078.75,0.2997
1078.50,0.3006
1078.25,0.3015
1078.00,0.3023
1077.75,0.3030
1077.50,0.3037
1077.25,0.3044
1077.00,0.3051
1076.75,0.3058
1076.50,0.3064
1076.25,0.3070
1076.00,0.3076
1075.75,0.3081
1075.50,0.3086
1075.25,0.3091
1075.00,0.3097
1074.75,0.3102
1074.50,0.3108
1074.25,0.3114
1074.00,0.3120
1073.75,0.3126
1073.50,0.3131
1073.25,0.3135
1073.00,0.3139
1072.75,0.3142
1072.50,0.3146
1072.25,0.3151
1072.00,0.3157
1071.75,0.3162
1071.50,0.3167
1071.25,0.3171
1071.00,0.3175
1070.75,0.3177
1070.50,0.3180
1070.25,0.3183
1070.00,0.3186
1069.75,0.3190
1069.50,0.3194
1069.25,0.3198
1069.00,0.3202
1068.75,0.3205
1068.50,0.3207
1068.25,0.3210
1068.00,0.3212
1067.75,0.3214
1067.50,0.3216
1067.25,0.3217
1067.00,0.3219
1066.75,0.3221
1066.50,0.3223
1066.25,0.3226
1066.00,0.3229
1065.75,0.3232
1065.50,0.3234
1065.25,0.3235
1065.00,0.3237
1064.75,0.3238
1064.50,0.3239
1064.25,0.3241
1064.00,0.3243
1063.75,0.3245
1063.50,0.3246
1063.25,0.3247
1063.00,0.3248
1062.75,0.3249
1062.50,0.3250
1062.25,0.3251
1062.00,0.3251
1061.75,0.3251
1061.50,0.3251
1061.25,0.3250
1061.00,0.3250
1060.75,0.3251
1060.50,0.3252
1060.25,0.3252
1060.00,0.3252
1059.75,0.3251
1059.50,0.3250
1059.25,0.3250
1059.00,0.3249
1058.75,0.3249
1058.50,0.3248
1058.25,0.3246
1058.00,0.3245
1057.75,0.3244
1057.50,0.3243
1057.25,0.3242
1057.00,0.3241
1056.75,0.3240
1056.50,0.3239
1056.25,0.3237
1056.00,0.3236
1055.75,0.3234
1055.50,0.3232
1055.25,0.3230
1055.00,0.3229
1054.75,0.3227
1054.50,0.3224
1054.25,0.3221
1054.00,0.3218
1053.75,0.3215
1053.50,0.3211
1053.25,0.3208
1053.00,0.3205
1052.75,0.3203
1052.50,0.3200
1052.25,0.3196
1052.00,0.3191
1051.75,0.3187
1051.50,0.3183
1051.25,0.3180
1051.00,0.3176
1050.75,0.3173
1050.50,0.3170
1050.25,0.3167
1050.00,0.3164
1049.75,0.3162
1049.50,0.3159
1049.25,0.3156
1049.00,0.3153
1048.75,0.3150
1048.50,0.3146
1048.25,0.3143
1048.00,0.3140
1047.75,0.3137
1047.50,0.3134
1047.25,0.3132
1047.00,0.3129
1046.75,0.3127
1046.50,0.3124
1046.25,0.3122
1046.00,0.3120
1045.75,0.3118
1045.50,0.3115
1045.25,0.3112
1045.00,0.3109
1044.75,0.3107
1044.50,0.3105
1044.25,0.3103
1044.00,0.3102
1043.75,0.3100
1043.50,0.3098
1043.25,0.3096
1043.00,0.3094
1042.75,0.3094
1042.50,0.3093
1042.25,0.3093
1042.00,0.3093
1041.75,0.3093
1041.50,0.3093
1041.25,0.3093
1041.00,0.3093
1040.75,0.3093
1040.50,0.3093
1040.25,0.3094
1040.00,0.3094
1039.75,0.3094
1039.50,0.3095
1039.25,0.3096
1039.00,0.3097
1038.75,0.3098
1038.50,0.3100
1038.25,0.3102
1038.00,0.3104
1037.75,0.3106
1037.50,0.3109
1037.25,0.3112
1037.00,0.3116
1036.75,0.3118
1036.50,0.3121
1036.25,0.3123
1036.00,0.3125
1035.75,0.3129
1035.50,0.3132
1035.25,0.3137
1035.00,0.3141
1034.75,0.3146
1034.50,0.3151
1034.25,0.3156
1034.00,0.3162
1033.75,0.3168
1033.50,0.3174
1033.25,0.3179
1033.00,0.3185
1032.75,0.3191
1032.50,0.3197
1032.25,0.3203
1032.00,0.3209
1031.75,0.3217
1031.50,0.3225
1031.25,0.3234
1031.00,0.3244
1030.75,0.3253
1030.50,0.3262
1030.25,0.3271
1030.00,0.3280
1029.75,0.3289
1029.50,0.3298
1029.25,0.3307
1029.00,0.3317
1028.75,0.3327
1028.50,0.3338
1028.25,0.3349
1028.00,0.3361
1027.75,0.3374
1027.50,0.3387
1027.25,0.3399
1027.00,0.3411
1026.75,0.3423
1026.50,0.3435
1026.25,0.3448
1026.00,0.3461
1025.75,0.3476
1025.50,0.3490
1025.25,0.3505
1025.00,0.3520
1024.75,0.3535
1024.50,0.3551
1024.25,0.3567
1024.00,0.3582
1023.75,0.3597
1023.50,0.3613
1023.25,0.3629
1023.00,0.3645
1022.75,0.3662
1022.50,0.3680
1022.25,0.3698
1022.00,0.3716
1021.75,0.3736
1021.50,0.3755
1021.25,0.3775
1021.00,0.3795
1020.75,0.3815
1020.50,0.3835
1020.25,0.3855
1020.00,0.3874
1019.75,0.3894
1019.50,0.3913
1019.25,0.3933
1019.00,0.3954
1018.75,0.3976
1018.50,0.3998
1018.25,0.4020
1018.00,0.4041
1017.75,0.4061
1017.50,0.4081
1017.25,0.4103
1017.00,0.4125
1016.75,0.4147
1016.50,0.4167
1016.25,0.4187
1016.00,0.4205
1015.75,0.4224
1015.50,0.4243
1015.25,0.4260
1015.00,0.4276
1014.75,0.4291
1014.50,0.4304
1014.25,0.4316
1014.00,0.4327
1013.75,0.4337
1013.50,0.4347
1013.25,0.4356
1013.00,0.4363
1012.75,0.4369
1012.50,0.4373
1012.25,0.4375
1012.00,0.4374
1011.75,0.4372
1011.50,0.4368
1011.25,0.4362
1011.00,0.4353
1010.75,0.4343
1010.50,0.4330
1010.25,0.4315
1010.00,0.4298
1009.75,0.4279
1009.50,0.4257
1009.25,0.4232
1009.00,0.4205
1008.75,0.4176
1008.50,0.4144
1008.25,0.4110
1008.00,0.4074
1007.75,0.4037
1007.50,0.3999
1007.25,0.3961
1007.00,0.3921
1006.75,0.3879
1006.50,0.3834
1006.25,0.3788
1006.00,0.3740
1005.75,0.3692
1005.50,0.3643
1005.25,0.3592
1005.00,0.3540
1004.75,0.3487
1004.50,0.3435
1004.25,0.3383
1004.00,0.3330
1003.75,0.3278
1003.50,0.3224
1003.25,0.3171
1003.00,0.3117
1002.75,0.3063
1002.50,0.3009
1002.25,0.2955
1002.00,0.2900
1001.75,0.2846
1001.50,0.2793
1001.25,0.2742
1001.00,0.2692
1000.75,0.2642
1000.50,0.2592
1000.25,0.2543
1000.00,0.2494
999.75,0.2447
999.50,0.2400
999.25,0.2356
999.00,0.2312
998.75,0.2270
998.50,0.2228
998.25,0.2187
998.00,0.2146
997.75,0.2106
997.50,0.2066
997.25,0.2027
997.00,0.1989
996.75,0.1953
996.50,0.1918
996.25,0.1885
996.00,0.1852
995.75,0.1820
995.50,0.1789
995.25,0.1758
995.00,0.1727
994.75,0.1698
994.50,0.1669
994.25,0.1641
994.00,0.1613
993.75,0.1587
993.50,0.1561
993.25,0.1535
993.00,0.1510
992.75,0.1486
992.50,0.1463
992.25,0.1441
992.00,0.1419
991.75,0.1397
991.50,0.1376
991.25,0.1356
991.00,0.1336
990.75,0.1317
990.50,0.1298
990.25,0.1279
990.00,0.1261
989.75,0.1243
989.50,0.1225
989.25,0.1208
989.00,0.1192
988.75,0.1177
988.50,0.1162
988.25,0.1147
988.00,0.1132
987.75,0.1117
987.50,0.1102
987.25,0.1088
987.00,0.1074
986.75,0.1061
986.50,0.1048
986.25,0.1035
986.00,0.1022
985.75,0.1010
985.50,0.0998
985.25,0.0986
985.00,0.0975
984.75,0.0965
984.50,0.0955
984.25,0.0946
984.00,0.0936
983.75,0.0925
983.50,0.0915
983.25,0.0905
983.00,0.0896
982.75,0.0887
982.50,0.0878
982.25,0.0869
982.00,0.0861
981.75,0.0852
981.50,0.0843
981.25,0.0835
981.00,0.0827
980.75,0.0820
980.50,0.0812
980.25,0.0805
980.00,0.0798
979.75,0.0790
979.50,0.0782
979.25,0.0775
979.00,0.0768
978.75,0.0761
978.50,0.0755
978.25,0.0750
978.00,0.0744
977.75,0.0738
977.50,0.0731
977.25,0.0725
977.00,0.0719
976.75,0.0713
976.50,0.0708
976.25,0.0703
976.00,0.0699
975.75,0.0693
975.50,0.0688
975.25,0.0683
975.00,0.0678
974.75,0.0673
974.50,0.0669
974.25,0.0664
974.00,0.0660
973.75,0.0655
973.50,0.0651
973.25,0.0647
973.00,0.0643
972.75,0.0639
972.50,0.0635
972.25,0.0631
972.00,0.0628
971.75,0.0626
971.50,0.0623
971.25,0.0619
971.00,0.0615
970.75,0.0611
970.50,0.0607
970.25,0.0603
970.00,0.0600
969.75,0.0597
969.50,0.0595
969.25,0.0592
969.00,0.0589
968.75,0.0586
968.50,0.0583
968.25,0.0580
968.00,0.0576
967.75,0.0573
967.50,0.0569
967.25,0.0566
967.00,0.0564
966.75,0.0562
966.50,0.0560
966.25,0.0557
966.00,0.0554
965.75,0.0551
965.50,0.0549
965.25,0.0547
965.00,0.0545
964.75,0.0544
964.50,0.0542
964.25,0.0540
964.00,0.0538
963.75,0.0536
963.50,0.0534
963.25,0.0532
963.00,0.0531
962.75,0.0529
962.50,0.0528
962.25,0.0527
962.00,0.0525
961.75,0.0524
961.50,0.0523
961.25,0.0522
961.00,0.0520
960.75,0.0519
960.50,0.0517
960.25,0.0514
960.00,0.0512
959.75,0.0511
959.50,0.0510
959.25,0.0509
959.00,0.0508
958.75,0.0507
958.50,0.0506
958.25,0.0505
958.00,0.0504
957.75,0.0502
957.50,0.0501
957.25,0.0500
957.00,0.0498
956.75,0.0497
956.50,0.0495
956.25,0.0493
956.00,0.0492
955.75,0.0491
955.50,0.0490
955.25,0.0489
955.00,0.0488
954.75,0.0486
954.50,0.0484
954.25,0.0481
954.00,0.0479
953.75,0.0476
953.50,0.0474
953.25,0.0472
953.00,0.0470
952.75,0.0468
952.50,0.0465
952.25,0.0463
952.00,0.0460
951.75,0.0457
951.50,0.0455
951.25,0.0452
951.00,0.0450
950.75,0.0448
950.50,0.0445
950.25,0.0443
950.00,0.0441
949.75,0.0439
949.50,0.0437
949.25,0.0435
949.00,0.0433
948.75,0.0430
948.50,0.0428
948.25,0.0426
948.00,0.0424
947.75,0.0423
947.50,0.0422
947.25,0.0421
947.00,0.0420
946.75,0.0418
946.50,0.0417
946.25,0.0415
946.00,0.0415
945.75,0.0413
945.50,0.0412
945.25,0.0411
945.00,0.0409
944.75,0.0409
944.50,0.0408
944.25,0.0408
944.00,0.0407
943.75,0.0406
943.50,0.0404
943.25,0.0403
943.00,0.0401
942.75,0.0399
942.50,0.0398
942.25,0.0397
942.00,0.0396
941.75,0.0395
941.50,0.0395
941.25,0.0394
941.00,0.0393
940.75,0.0392
940.50,0.0392
940.25,0.0391
940.00,0.0390
939.75,0.0389
939.50,0.0388
939.25,0.0387
939.00,0.0386
938.75,0.0385
938.50,0.0385
938.25,0.0384
938.00,0.0384
937.75,0.0382
937.50,0.0381
937.25,0.0380
937.00,0.0379
936.75,0.0378
936.50,0.0378
936.25,0.0378
936.00,0.0378
935.75,0.0377
935.50,0.0377
935.25,0.0376
935.00,0.0376
934.75,0.0375
934.50,0.0374
934.25,0.0373
934.00,0.0373
933.75,0.0372
933.50,0.0371
933.25,0.0371
933.00,0.0370
932.75,0.0369
932.50,0.0369
932.25,0.0369
932.00,0.0369
931.75,0.0369
931.50,0.0368
931.25,0.0367
931.00,0.0367
930.75,0.0366
930.50,0.0366
930.25,0.0366
930.00,0.0366
929.75,0.0366
929.50,0.0366
929.25,0.0365
929.00,0.0365
928.75,0.0364
928.50,0.0364
928.25,0.0364
928.00,0.0364
927.75,0.0364
927.50,0.0363
927.25,0.0362
927.00,0.0361
926.75,0.0361
926.50,0.0361
926.25,0.0361
926.00,0.0361
925.75,0.0361
925.50,0.0361
925.25,0.0360
925.00,0.0360
924.75,0.0359
924.50,0.0358
924.25,0.0357
924.00,0.0357
923.75,0.0357
923.50,0.0358
923.25,0.0358
923.00,0.0359
922.75,0.0360
922.50,0.0360
922.25,0.0360
922.00,0.0360
921.75,0.0359
921.50,0.0358
921.25,0.0357
921.00,0.0357
920.75,0.0358
920.50,0.0359
920.25,0.0360
920.00,0.0361
919.75,0.0361
919.50,0.0360
919.25,0.0360
919.00,0.0359
918.75,0.0360
918.50,0.0361
918.25,0.0361
918.00,0.0362
917.75,0.0361
917.50,0.0360
917.25,0.0360
917.00,0.0360
916.75,0.0361
916.50,0.0362
916.25,0.0363
916.00,0.0363
915.75,0.0362
915.50,0.0361
915.25,0.0360
915.00,0.0360
914.75,0.0360
914.50,0.0361
914.25,0.0362
914.00,0.0363
913.75,0.0364
913.50,0.0365
913.25,0.0366
913.00,0.0367
912.75,0.0367
912.50,0.0367
912.25,0.0368
912.00,0.0368
911.75,0.0369
911.50,0.0370
911.25,0.0370
911.00,0.0370
910.75,0.0370
910.50,0.0370
910.25,0.0370
910.00,0.0371
909.75,0.0373
909.50,0.0374
909.25,0.0375
909.00,0.0375
908.75,0.0375
908.50,0.0376
908.25,0.0376
908.00,0.0377
907.75,0.0379
907.50,0.0380
907.25,0.0381
907.00,0.0382
906.75,0.0383
906.50,0.0384
906.25,0.0384
906.00,0.0385
905.75,0.0384
905.50,0.0384
905.25,0.0384
905.00,0.0384
904.75,0.0384
904.50,0.0385
904.25,0.0386
904.00,0.0387
903.75,0.0388
903.50,0.0390
903.25,0.0391
903.00,0.0392
902.75,0.0393
902.50,0.0394
902.25,0.0395
902.00,0.0397
901.75,0.0398
901.50,0.0398
901.25,0.0399
901.00,0.0400
900.75,0.0401
900.50,0.0402
900.25,0.0403
900.00,0.0404
899.75,0.0406
899.50,0.0407
899.25,0.0408
899.00,0.0410
898.75,0.0411
898.50,0.0411
898.25,0.0412
898.00,0.0413
897.75,0.0415
897.50,0.0418
897.25,0.0420
897.00,0.0422
896.75,0.0424
896.50,0.0425
896.25,0.0427
896.00,0.0428
895.75,0.0430
895.50,0.0432
895.25,0.0433
895.00,0.0434
894.75,0.0435
894.50,0.0436
894.25,0.0438
894.00,0.0440
893.75,0.0441
893.50,0.0442
893.25,0.0444
893.00,0.0447
892.75,0.0450
892.50,0.0454
892.25,0.0457
892.00,0.0460
891.75,0.0463
891.50,0.0465
891.25,0.0467
891.00,0.0469
890.75,0.0471
890.50,0.0473
890.25,0.0476
890.00,0.0478
889.75,0.0481
889.50,0.0485
889.25,0.0488
889.00,0.0491
888.75,0.0494
888.50,0.0497
888.25,0.0500
888.00,0.0504
887.75,0.0507
887.50,0.0511
887.25,0.0514
887.00,0.0518
886.75,0.0521
886.50,0.0526
886.25,0.0530
886.00,0.0535
885.75,0.0539
885.50,0.0543
885.25,0.0547
885.00,0.0552
884.75,0.0556
884.50,0.0561
884.25,0.0566
884.00,0.0570
883.75,0.0576
883.50,0.0581
883.25,0.0587
883.00,0.0593
882.75,0.0600
882.50,0.0606
882.25,0.0613
882.00,0.0620
881.75,0.0627
881.50,0.0633
881.25,0.0640
881.00,0.0647
880.75,0.0655
880.50,0.0663
880.25,0.0671
880.00,0.0678
879.75,0.0685
879.50,0.0693
879.25,0.0701
879.00,0.0710
878.75,0.0720
878.50,0.0729
878.25,0.0739
878.00,0.0748
877.75,0.0757
877.50,0.0766
877.25,0.0776
877.00,0.0785
876.75,0.0796
876.50,0.0807
876.25,0.0819
876.00,0.0831
875.75,0.0842
875.50,0.0854
875.25,0.0866
875.00,0.0878
874.75,0.0891
874.50,0.0903
874.25,0.0915
874.00,0.0927
873.75,0.0941
873.50,0.0955
873.25,0.0971
873.00,0.0986
872.75,0.1002
872.50,0.1017
872.25,0.1032
872.00,0.1047
871.75,0.1062
871.50,0.1077
871.25,0.1092
871.00,0.1108
870.75,0.1124
870.50,0.1139
870.25,0.1153
870.00,0.1167
869.75,0.1181
869.50,0.1196
869.25,0.1210
869.00,0.1225
868.75,0.1238
868.50,0.1251
868.25,0.1263
868.00,0.1274
867.75,0.1285
867.50,0.1296
867.25,0.1306
867.00,0.1316
866.75,0.1325
866.50,0.1333
866.25,0.1340
866.00,0.1345
865.75,0.1349
865.50,0.1354
865.25,0.1358
865.00,0.1361
864.75,0.1364
864.50,0.1366
864.25,0.1367
864.00,0.1366
863.75,0.1366
863.50,0.1364
863.25,0.1363
863.00,0.1361
862.75,0.1358
862.50,0.1355
862.25,0.1352
862.00,0.1348
861.75,0.1344
861.50,0.1340
861.25,0.1335
861.00,0.1330
860.75,0.1325
860.50,0.1319
860.25,0.1314
860.00,0.1308
859.75,0.1303
859.50,0.1297
859.25,0.1291
859.00,0.1285
858.75,0.1280
858.50,0.1274
858.25,0.1270
858.00,0.1265
857.75,0.1261
857.50,0.1257
857.25,0.1253
857.00,0.1250
856.75,0.1248
856.50,0.1246
856.25,0.1246
856.00,0.1246
855.75,0.1246
855.50,0.1247
855.25,0.1248
855.00,0.1250
854.75,0.1251
854.50,0.1253
854.25,0.1256
854.00,0.1259
853.75,0.1263
853.50,0.1268
853.25,0.1274
853.00,0.1281
852.75,0.1289
852.50,0.1297
852.25,0.1305
852.00,0.1314
851.75,0.1322
851.50,0.1331
851.25,0.1341
851.00,0.1352
850.75,0.1364
850.50,0.1375
850.25,0.1387
850.00,0.1398
849.75,0.1410
849.50,0.1423
849.25,0.1436
849.00,0.1449
848.75,0.1464
848.50,0.1478
848.25,0.1491
848.00,0.1503
847.75,0.1514
847.50,0.1524
847.25,0.1534
847.00,0.1545
846.75,0.1556
846.50,0.1565
846.25,0.1574
846.00,0.1583
845.75,0.1592
845.50,0.1601
845.25,0.1608
845.00,0.1614
844.75,0.1619
844.50,0.1623
844.25,0.1626
844.00,0.1629
843.75,0.1631
843.50,0.1632
843.25,0.1632
843.00,0.1631
842.75,0.1628
842.50,0.1623
842.25,0.1617
842.00,0.1610
841.75,0.1603
841.50,0.1595
841.25,0.1587
841.00,0.1579
840.75,0.1570
840.50,0.1561
840.25,0.1549
840.00,0.1537
839.75,0.1524
839.50,0.1511
839.25,0.1498
839.00,0.1485
838.75,0.1473
838.50,0.1461
838.25,0.1448
838.00,0.1435
837.75,0.1422
837.50,0.1408
837.25,0.1395
837.00,0.1382
836.75,0.1370
836.50,0.1359
836.25,0.1350
836.00,0.1340
835.75,0.1330
835.50,0.1319
835.25,0.1308
835.00,0.1296
834.75,0.1284
834.50,0.1274
834.25,0.1264
834.00,0.1256
833.75,0.1249
833.50,0.1242
833.25,0.1236
833.00,0.1231
832.75,0.1227
832.50,0.1223
832.25,0.1220
832.00,0.1218
831.75,0.1216
831.50,0.1214
831.25,0.1214
831.00,0.1213
830.75,0.1213
830.50,0.1214
830.25,0.1215
830.00,0.1217
829.75,0.1221
829.50,0.1227
829.25,0.1234
829.00,0.1241
828.75,0.1248
828.50,0.1257
828.25,0.1266
828.00,0.1275
827.75,0.1285
827.50,0.1296
827.25,0.1308
827.00,0.1321
826.75,0.1337
826.50,0.1354
826.25,0.1373
826.00,0.1392
825.75,0.1410
825.50,0.1428
825.25,0.1447
825.00,0.1467
824.75,0.1489
824.50,0.1513
824.25,0.1537
824.00,0.1563
823.75,0.1587
823.50,0.1612
823.25,0.1636
823.00,0.1660
822.75,0.1685
822.50,0.1711
822.25,0.1737
822.00,0.1762
821.75,0.1787
821.50,0.1811
821.25,0.1835
821.00,0.1858
820.75,0.1882
820.50,0.1904
820.25,0.1927
820.00,0.1948
819.75,0.1969
819.50,0.1988
819.25,0.2006
819.00,0.2023
818.75,0.2040
818.50,0.2057
818.25,0.2074
818.00,0.2090
817.75,0.2106
817.50,0.2121
817.25,0.2135
817.00,0.2149
816.75,0.2163
816.50,0.2176
816.25,0.2189
816.00,0.2202
815.75,0.2215
815.50,0.2228
815.25,0.2241
815.00,0.2254
814.75,0.2268
814.50,0.2283
814.25,0.2299
814.00,0.2315
813.75,0.2331
813.50,0.2348
813.25,0.2365
813.00,0.2381
812.75,0.2398
812.50,0.2414
812.25,0.2431
812.00,0.2450
811.75,0.2469
811.50,0.2490
811.25,0.2512
811.00,0.2534
810.75,0.2557
810.50,0.2580
810.25,0.2606
810.00,0.2632
809.75,0.2660
809.50,0.2688
809.25,0.2716
809.00,0.2745
808.75,0.2775
808.50,0.2807
808.25,0.2841
808.00,0.2875
807.75,0.2909
807.50,0.2944
807.25,0.2978
807.00,0.3014
806.75,0.3051
806.50,0.3089
806.25,0.3127
806.00,0.3166
805.75,0.3205
805.50,0.3246
805.25,0.3288
805.00,0.3330
804.75,0.3372
804.50,0.3414
804.25,0.3456
804.00,0.3500
803.75,0.3546
803.50,0.3593
803.25,0.3640
803.00,0.3688
802.75,0.3736
802.50,0.3783
802.25,0.3831
802.00,0.3878
801.75,0.3927
801.50,0.3976
801.25,0.4026
801.00,0.4076
800.75,0.4126
800.50,0.4175
800.25,0.4225
800.00,0.4275
