Created as New Dataset,Sample 042 By irlear Date Wednesday, January 07 2009
cm-1,A
4000.00,0.0168
3999.75,0.0168
3999.50,0.0167
3999.25,0.0167
3999.00,0.0167
3998.75,0.0167
3998.50,0.0168
3998.25,0.0168
3998.00,0.0168
3997.75,0.0168
3997.50,0.0168
3997.25,0.0167
3997.00,0.0167
3996.75,0.0167
3996.50,0.0166
3996.25,0.0166
3996.00,0.0167
3995.75,0.0167
3995.50,0.0167
3995.25,0.0168
3995.00,0.0168
3994.75,0.0168
3994.50,0.0168
3994.25,0.0168
3994.00,0.0169
3993.75,0.0169
3993.50,0.0169
3993.25,0.0169
3993.00,0.0169
3992.75,0.0169
3992.50,0.0169
3992.25,0.0169
3992.00,0.0169
3991.75,0.0169
3991.50,0.0168
3991.25,0.0168
3991.00,0.0168
3990.75,0.0168
3990.50,0.0167
3990.25,0.0167
3990.00,0.0167
3989.75,0.0168
3989.50,0.0168
3989.25,0.0169
3989.00,0.0169
3988.75,0.0169
3988.50,0.0169
3988.25,0.0168
3988.00,0.0168
3987.75,0.0168
3987.50,0.0168
3987.25,0.0168
3987.00,0.0167
3986.75,0.0167
3986.50,0.0167
3986.25,0.0167
3986.00,0.0168
3985.75,0.0168
3985.50,0.0168
3985.25,0.0168
3985.00,0.0167
3984.75,0.0167
3984.50,0.0167
3984.25,0.0167
3984.00,0.0168
3983.75,0.0168
3983.50,0.0169
3983.25,0.0169
3983.00,0.0168
3982.75,0.0168
3982.50,0.0168
3982.25,0.0168
3982.00,0.0168
3981.75,0.0168
3981.50,0.0169
3981.25,0.0169
3981.00,0.0169
3980.75,0.0169
3980.50,0.0169
3980.25,0.0169
3980.00,0.0169
3979.75,0.0168
3979.50,0.0168
3979.25,0.0168
3979.00,0.0168
3978.75,0.0168
3978.50,0.0168
3978.25,0.0168
3978.00,0.0168
3977.75,0.0168
3977.50,0.0168
3977.25,0.0168
3977.00,0.0168
3976.75,0.0168
3976.50,0.0168
3976.25,0.0168
3976.00,0.0169
3975.75,0.0169
3975.50,0.0169
3975.25,0.0169
3975.00,0.0169
3974.75,0.0168
3974.50,0.0168
3974.25,0.0168
3974.00,0.0168
3973.75,0.0168
3973.50,0.0169
3973.25,0.0169
3973.00,0.0169
3972.75,0.0169
3972.50,0.0169
3972.25,0.0168
3972.00,0.0168
3971.75,0.0167
3971.50,0.0167
3971.25,0.0168
3971.00,0.0168
3970.75,0.0168
3970.50,0.0169
3970.25,0.0169
3970.00,0.0168
3969.75,0.0168
3969.50,0.0168
3969.25,0.0168
3969.00,0.0168
3968.75,0.0168
3968.50,0.0168
3968.25,0.0168
3968.00,0.0168
3967.75,0.0168
3967.50,0.0168
3967.25,0.0168
3967.00,0.0168
3966.75,0.0168
3966.50,0.0169
3966.25,0.0169
3966.00,0.0169
3965.75,0.0169
3965.50,0.0168
3965.25,0.0167
3965.00,0.0167
3964.75,0.0167
3964.50,0.0168
3964.25,0.0168
3964.00,0.0168
3963.75,0.0168
3963.50,0.0168
3963.25,0.0169
3963.00,0.0169
3962.75,0.0169
3962.50,0.0170
3962.25,0.0170
3962.00,0.0170
3961.75,0.0170
3961.50,0.0169
3961.25,0.0169
3961.00,0.0168
3960.75,0.0168
3960.50,0.0168
3960.25,0.0168
3960.00,0.0168
3959.75,0.0167
3959.50,0.0167
3959.25,0.0168
3959.00,0.0168
3958.75,0.0168
3958.50,0.0168
3958.25,0.0168
3958.00,0.0168
3957.75,0.0168
3957.50,0.0168
3957.25,0.0168
3957.00,0.0169
3956.75,0.0169
3956.50,0.0170
3956.25,0.0170
3956.00,0.0170
3955.75,0.0169
3955.50,0.0169
3955.25,0.0169
3955.00,0.0168
3954.75,0.0168
3954.50,0.0167
3954.25,0.0167
3954.00,0.0168
3953.75,0.0168
3953.50,0.0169
3953.25,0.0169
3953.00,0.0169
3952.75,0.0169
3952.50,0.0169
3952.25,0.0169
3952.00,0.0169
3951.75,0.0169
3951.50,0.0168
3951.25,0.0168
3951.00,0.0168
3950.75,0.0168
3950.50,0.0169
3950.25,0.0169
3950.00,0.0170
3949.75,0.0170
3949.50,0.0170
3949.25,0.0169
3949.00,0.0169
3948.75,0.0169
3948.50,0.0169
3948.25,0.0169
3948.00,0.0169
3947.75,0.0169
3947.50,0.0168
3947.25,0.0168
3947.00,0.0169
3946.75,0.0169
3946.50,0.0169
3946.25,0.0168
3946.00,0.0168
3945.75,0.0168
3945.50,0.0168
3945.25,0.0168
3945.00,0.0168
3944.75,0.0169
3944.50,0.0169
3944.25,0.0169
3944.00,0.0169
3943.75,0.0169
3943.50,0.0168
3943.25,0.0168
3943.00,0.0168
3942.75,0.0169
3942.50,0.0170
3942.25,0.0171
3942.00,0.0170
3941.75,0.0169
3941.50,0.0168
3941.25,0.0168
3941.00,0.0168
3940.75,0.0168
3940.50,0.0168
3940.25,0.0168
3940.00,0.0168
3939.75,0.0168
3939.50,0.0168
3939.25,0.0168
3939.00,0.0167
3938.75,0.0167
3938.50,0.0168
3938.25,0.0168
3938.00,0.0169
3937.75,0.0169
3937.50,0.0169
3937.25,0.0169
3937.00,0.0168
3936.75,0.0168
3936.50,0.0167
3936.25,0.0167
3936.00,0.0167
3935.75,0.0167
3935.50,0.0168
3935.25,0.0168
3935.00,0.0169
3934.75,0.0170
3934.50,0.0170
3934.25,0.0170
3934.00,0.0169
3933.75,0.0168
3933.50,0.0168
3933.25,0.0168
3933.00,0.0168
3932.75,0.0168
3932.50,0.0168
3932.25,0.0169
3932.00,0.0169
3931.75,0.0169
3931.50,0.0169
3931.25,0.0169
3931.00,0.0169
3930.75,0.0169
3930.50,0.0169
3930.25,0.0169
3930.00,0.0169
3929.75,0.0168
3929.50,0.0168
3929.25,0.0168
3929.00,0.0168
3928.75,0.0168
3928.50,0.0169
3928.25,0.0169
3928.00,0.0169
3927.75,0.0169
3927.50,0.0169
3927.25,0.0168
3927.00,0.0168
3926.75,0.0168
3926.50,0.0168
3926.25,0.0168
3926.00,0.0168
3925.75,0.0168
3925.50,0.0168
3925.25,0.0167
3925.00,0.0167
3924.75,0.0168
3924.50,0.0168
3924.25,0.0168
3924.00,0.0169
3923.75,0.0169
3923.50,0.0170
3923.25,0.0170
3923.00,0.0170
3922.75,0.0169
3922.50,0.0169
3922.25,0.0168
3922.00,0.0168
3921.75,0.0167
3921.50,0.0167
3921.25,0.0167
3921.00,0.0167
3920.75,0.0167
3920.50,0.0167
3920.25,0.0167
3920.00,0.0167
3919.75,0.0167
3919.50,0.0167
3919.25,0.0168
3919.00,0.0168
3918.75,0.0168
3918.50,0.0169
3918.25,0.0168
3918.00,0.0168
3917.75,0.0168
3917.50,0.0167
3917.25,0.0168
3917.00,0.0168
3916.75,0.0169
3916.50,0.0169
3916.25,0.0169
3916.00,0.0169
3915.75,0.0169
3915.50,0.0168
3915.25,0.0168
3915.00,0.0168
3914.75,0.0167
3914.50,0.0167
3914.25,0.0168
3914.00,0.0168
3913.75,0.0168
3913.50,0.0168
3913.25,0.0168
3913.00,0.0168
3912.75,0.0168
3912.50,0.0168
3912.25,0.0168
3912.00,0.0168
3911.75,0.0169
3911.50,0.0169
3911.25,0.0168
3911.00,0.0168
3910.75,0.0167
3910.50,0.0167
3910.25,0.0167
3910.00,0.0168
3909.75,0.0168
3909.50,0.0169
3909.25,0.0169
3909.00,0.0169
3908.75,0.0170
3908.50,0.0170
3908.25,0.0170
3908.00,0.0169
3907.75,0.0168
3907.50,0.0167
3907.25,0.0167
3907.00,0.0167
3906.75,0.0167
3906.50,0.0167
3906.25,0.0167
3906.00,0.0168
3905.75,0.0168
3905.50,0.0168
3905.25,0.0168
3905.00,0.0168
3904.75,0.0168
3904.50,0.0168
3904.25,0.0169
3904.00,0.0169
3903.75,0.0168
3903.50,0.0168
3903.25,0.0168
3903.00,0.0168
3902.75,0.0168
3902.50,0.0168
3902.25,0.0168
3902.00,0.0168
3901.75,0.0167
3901.50,0.0166
3901.25,0.0165
3901.00,0.0166
3900.75,0.0167
3900.50,0.0167
3900.25,0.0167
3900.00,0.0167
3899.75,0.0167
3899.50,0.0168
3899.25,0.0168
3899.00,0.0169
3898.75,0.0168
3898.50,0.0168
3898.25,0.0168
3898.00,0.0168
3897.75,0.0168
3897.50,0.0168
3897.25,0.0168
3897.00,0.0168
3896.75,0.0167
3896.50,0.0167
3896.25,0.0166
3896.00,0.0166
3895.75,0.0166
3895.50,0.0166
3895.25,0.0166
3895.00,0.0166
3894.75,0.0166
3894.50,0.0167
3894.25,0.0167
3894.00,0.0167
3893.75,0.0167
3893.50,0.0167
3893.25,0.0167
3893.00,0.0167
3892.75,0.0168
3892.50,0.0168
3892.25,0.0168
3892.00,0.0169
3891.75,0.0169
3891.50,0.0170
3891.25,0.0170
3891.00,0.0169
3890.75,0.0169
3890.50,0.0168
3890.25,0.0168
3890.00,0.0168
3889.75,0.0169
3889.50,0.0169
3889.25,0.0169
3889.00,0.0169
3888.75,0.0170
3888.50,0.0170
3888.25,0.0170
3888.00,0.0170
3887.75,0.0169
3887.50,0.0168
3887.25,0.0168
3887.00,0.0167
3886.75,0.0167
3886.50,0.0167
3886.25,0.0166
3886.00,0.0166
3885.75,0.0166
3885.50,0.0165
3885.25,0.0165
3885.00,0.0165
3884.75,0.0166
3884.50,0.0166
3884.25,0.0167
3884.00,0.0167
3883.75,0.0167
3883.50,0.0167
3883.25,0.0168
3883.00,0.0168
3882.75,0.0168
3882.50,0.0168
3882.25,0.0168
3882.00,0.0168
3881.75,0.0168
3881.50,0.0168
3881.25,0.0168
3881.00,0.0167
3880.75,0.0167
3880.50,0.0166
3880.25,0.0166
3880.00,0.0165
3879.75,0.0166
3879.50,0.0167
3879.25,0.0168
3879.00,0.0168
3878.75,0.0168
3878.50,0.0168
3878.25,0.0169
3878.00,0.0169
3877.75,0.0169
3877.50,0.0169
3877.25,0.0168
3877.00,0.0168
3876.75,0.0167
3876.50,0.0167
3876.25,0.0166
3876.00,0.0167
3875.75,0.0167
3875.50,0.0167
3875.25,0.0167
3875.00,0.0166
3874.75,0.0167
3874.50,0.0168
3874.25,0.0170
3874.00,0.0171
3873.75,0.0171
3873.50,0.0169
3873.25,0.0167
3873.00,0.0166
3872.75,0.0166
3872.50,0.0166
3872.25,0.0166
3872.00,0.0166
3871.75,0.0166
3871.50,0.0166
3871.25,0.0167
3871.00,0.0167
3870.75,0.0168
3870.50,0.0169
3870.25,0.0170
3870.00,0.0171
3869.75,0.0170
3869.50,0.0169
3869.25,0.0167
3869.00,0.0167
3868.75,0.0167
3868.50,0.0168
3868.25,0.0168
3868.00,0.0168
3867.75,0.0168
3867.50,0.0167
3867.25,0.0167
3867.00,0.0167
3866.75,0.0167
3866.50,0.0166
3866.25,0.0167
3866.00,0.0167
3865.75,0.0166
3865.50,0.0166
3865.25,0.0165
3865.00,0.0165
3864.75,0.0165
3864.50,0.0166
3864.25,0.0168
3864.00,0.0169
3863.75,0.0170
3863.50,0.0170
3863.25,0.0170
3863.00,0.0170
3862.75,0.0170
3862.50,0.0169
3862.25,0.0169
3862.00,0.0169
3861.75,0.0169
3861.50,0.0169
3861.25,0.0169
3861.00,0.0168
3860.75,0.0168
3860.50,0.0167
3860.25,0.0167
3860.00,0.0167
3859.75,0.0167
3859.50,0.0167
3859.25,0.0168
3859.00,0.0168
3858.75,0.0169
3858.50,0.0169
3858.25,0.0169
3858.00,0.0169
3857.75,0.0169
3857.50,0.0170
3857.25,0.0170
3857.00,0.0171
3856.75,0.0170
3856.50,0.0170
3856.25,0.0169
3856.00,0.0169
3855.75,0.0168
3855.50,0.0168
3855.25,0.0167
3855.00,0.0166
3854.75,0.0165
3854.50,0.0164
3854.25,0.0164
3854.00,0.0167
3853.75,0.0170
3853.50,0.0169
3853.25,0.0168
3853.00,0.0166
3852.75,0.0165
3852.50,0.0164
3852.25,0.0164
3852.00,0.0164
3851.75,0.0165
3851.50,0.0165
3851.25,0.0166
3851.00,0.0167
3850.75,0.0167
3850.50,0.0167
3850.25,0.0168
3850.00,0.0168
3849.75,0.0169
3849.50,0.0170
3849.25,0.0170
3849.00,0.0170
3848.75,0.0170
3848.50,0.0170
3848.25,0.0170
3848.00,0.0169
3847.75,0.0168
3847.50,0.0168
3847.25,0.0168
3847.00,0.0168
3846.75,0.0168
3846.50,0.0169
3846.25,0.0169
3846.00,0.0169
3845.75,0.0168
3845.50,0.0168
3845.25,0.0168
3845.00,0.0168
3844.75,0.0168
3844.50,0.0168
3844.25,0.0167
3844.00,0.0168
3843.75,0.0168
3843.50,0.0169
3843.25,0.0169
3843.00,0.0168
3842.75,0.0168
3842.50,0.0168
3842.25,0.0168
3842.00,0.0168
3841.75,0.0168
3841.50,0.0168
3841.25,0.0168
3841.00,0.0168
3840.75,0.0168
3840.50,0.0168
3840.25,0.0169
3840.00,0.0169
3839.75,0.0169
3839.50,0.0169
3839.25,0.0169
3839.00,0.0169
3838.75,0.0168
3838.50,0.0167
3838.25,0.0167
3838.00,0.0166
3837.75,0.0165
3837.50,0.0164
3837.25,0.0163
3837.00,0.0164
3836.75,0.0164
3836.50,0.0165
3836.25,0.0166
3836.00,0.0166
3835.75,0.0167
3835.50,0.0167
3835.25,0.0168
3835.00,0.0169
3834.75,0.0170
3834.50,0.0170
3834.25,0.0170
3834.00,0.0169
3833.75,0.0169
3833.50,0.0168
3833.25,0.0168
3833.00,0.0168
3832.75,0.0168
3832.50,0.0168
3832.25,0.0169
3832.00,0.0169
3831.75,0.0170
3831.50,0.0170
3831.25,0.0170
3831.00,0.0170
3830.75,0.0170
3830.50,0.0169
3830.25,0.0169
3830.00,0.0169
3829.75,0.0169
3829.50,0.0169
3829.25,0.0169
3829.00,0.0168
3828.75,0.0169
3828.50,0.0169
3828.25,0.0169
3828.00,0.0169
3827.75,0.0169
3827.50,0.0169
3827.25,0.0169
3827.00,0.0170
3826.75,0.0170
3826.50,0.0170
3826.25,0.0170
3826.00,0.0170
3825.75,0.0170
3825.50,0.0170
3825.25,0.0170
3825.00,0.0170
3824.75,0.0169
3824.50,0.0169
3824.25,0.0169
3824.00,0.0169
3823.75,0.0169
3823.50,0.0169
3823.25,0.0169
3823.00,0.0169
3822.75,0.0168
3822.50,0.0168
3822.25,0.0169
3822.00,0.0170
3821.75,0.0170
3821.50,0.0171
3821.25,0.0170
3821.00,0.0169
3820.75,0.0168
3820.50,0.0167
3820.25,0.0168
3820.00,0.0168
3819.75,0.0168
3819.50,0.0167
3819.25,0.0167
3819.00,0.0167
3818.75,0.0168
3818.50,0.0168
3818.25,0.0169
3818.00,0.0169
3817.75,0.0168
3817.50,0.0168
3817.25,0.0167
3817.00,0.0166
3816.75,0.0165
3816.50,0.0165
3816.25,0.0165
3816.00,0.0165
3815.75,0.0167
3815.50,0.0167
3815.25,0.0168
3815.00,0.0169
3814.75,0.0169
3814.50,0.0169
3814.25,0.0169
3814.00,0.0170
3813.75,0.0170
3813.50,0.0170
3813.25,0.0169
3813.00,0.0169
3812.75,0.0168
3812.50,0.0167
3812.25,0.0167
3812.00,0.0167
3811.75,0.0168
3811.50,0.0168
3811.25,0.0169
3811.00,0.0170
3810.75,0.0170
3810.50,0.0170
3810.25,0.0170
3810.00,0.0169
3809.75,0.0169
3809.50,0.0169
3809.25,0.0169
3809.00,0.0169
3808.75,0.0169
3808.50,0.0169
3808.25,0.0169
3808.00,0.0169
3807.75,0.0169
3807.50,0.0168
3807.25,0.0168
3807.00,0.0167
3806.75,0.0166
3806.50,0.0166
3806.25,0.0166
3806.00,0.0167
3805.75,0.0168
3805.50,0.0168
3805.25,0.0169
3805.00,0.0169
3804.75,0.0169
3804.50,0.0168
3804.25,0.0168
3804.00,0.0168
3803.75,0.0167
3803.50,0.0167
3803.25,0.0167
3803.00,0.0168
3802.75,0.0168
3802.50,0.0168
3802.25,0.0167
3802.00,0.0166
3801.75,0.0166
3801.50,0.0165
3801.25,0.0166
3801.00,0.0167
3800.75,0.0168
3800.50,0.0168
3800.25,0.0169
3800.00,0.0169
3799.75,0.0169
3799.50,0.0169
3799.25,0.0169
3799.00,0.0169
3798.75,0.0169
3798.50,0.0169
3798.25,0.0169
3798.00,0.0169
3797.75,0.0169
3797.50,0.0169
3797.25,0.0169
3797.00,0.0169
3796.75,0.0169
3796.50,0.0169
3796.25,0.0169
3796.00,0.0169
3795.75,0.0168
3795.50,0.0169
3795.25,0.0169
3795.00,0.0169
3794.75,0.0169
3794.50,0.0170
3794.25,0.0170
3794.00,0.0170
3793.75,0.0170
3793.50,0.0170
3793.25,0.0170
3793.00,0.0170
3792.75,0.0169
3792.50,0.0169
3792.25,0.0169
3792.00,0.0169
3791.75,0.0169
3791.50,0.0170
3791.25,0.0170
3791.00,0.0170
3790.75,0.0170
3790.50,0.0170
3790.25,0.0170
3790.00,0.0170
3789.75,0.0170
3789.50,0.0170
3789.25,0.0170
3789.00,0.0170
3788.75,0.0169
3788.50,0.0169
3788.25,0.0169
3788.00,0.0169
3787.75,0.0170
3787.50,0.0170
3787.25,0.0170
3787.00,0.0170
3786.75,0.0171
3786.50,0.0171
3786.25,0.0170
3786.00,0.0170
3785.75,0.0170
3785.50,0.0170
3785.25,0.0170
3785.00,0.0170
3784.75,0.0171
3784.50,0.0171
3784.25,0.0170
3784.00,0.0170
3783.75,0.0170
3783.50,0.0170
3783.25,0.0170
3783.00,0.0170
3782.75,0.0169
3782.50,0.0169
3782.25,0.0169
3782.00,0.0170
3781.75,0.0170
3781.50,0.0170
3781.25,0.0169
3781.00,0.0169
3780.75,0.0168
3780.50,0.0168
3780.25,0.0169
3780.00,0.0170
3779.75,0.0171
3779.50,0.0172
3779.25,0.0172
3779.00,0.0171
3778.75,0.0170
3778.50,0.0170
3778.25,0.0170
3778.00,0.0170
3777.75,0.0170
3777.50,0.0170
3777.25,0.0170
3777.00,0.0170
3776.75,0.0170
3776.50,0.0171
3776.25,0.0171
3776.00,0.0171
3775.75,0.0171
3775.50,0.0171
3775.25,0.0171
3775.00,0.0170
3774.75,0.0170
3774.50,0.0170
3774.25,0.0170
3774.00,0.0170
3773.75,0.0170
3773.50,0.0170
3773.25,0.0170
3773.00,0.0170
3772.75,0.0170
3772.50,0.0170
3772.25,0.0170
3772.00,0.0169
3771.75,0.0169
3771.50,0.0169
3771.25,0.0169
3771.00,0.0169
3770.75,0.0169
3770.50,0.0170
3770.25,0.0171
3770.00,0.0172
3769.75,0.0171
3769.50,0.0170
3769.25,0.0169
3769.00,0.0169
3768.75,0.0170
3768.50,0.0170
3768.25,0.0170
3768.00,0.0171
3767.75,0.0170
3767.50,0.0170
3767.25,0.0169
3767.00,0.0169
3766.75,0.0169
3766.50,0.0169
3766.25,0.0169
3766.00,0.0169
3765.75,0.0169
3765.50,0.0169
3765.25,0.0168
3765.00,0.0168
3764.75,0.0168
3764.50,0.0169
3764.25,0.0170
3764.00,0.0170
3763.75,0.0170
3763.50,0.0171
3763.25,0.0172
3763.00,0.0172
3762.75,0.0172
3762.50,0.0171
3762.25,0.0171
3762.00,0.0170
3761.75,0.0170
3761.50,0.0170
3761.25,0.0170
3761.00,0.0170
3760.75,0.0170
3760.50,0.0170
3760.25,0.0170
3760.00,0.0170
3759.75,0.0170
3759.50,0.0170
3759.25,0.0171
3759.00,0.0171
3758.75,0.0172
3758.50,0.0172
3758.25,0.0171
3758.00,0.0171
3757.75,0.0170
3757.50,0.0169
3757.25,0.0169
3757.00,0.0169
3756.75,0.0169
3756.50,0.0169
3756.25,0.0170
3756.00,0.0170
3755.75,0.0171
3755.50,0.0171
3755.25,0.0171
3755.00,0.0171
3754.75,0.0171
3754.50,0.0171
3754.25,0.0171
3754.00,0.0171
3753.75,0.0171
3753.50,0.0171
3753.25,0.0170
3753.00,0.0170
3752.75,0.0169
3752.50,0.0169
3752.25,0.0169
3752.00,0.0169
3751.75,0.0169
3751.50,0.0169
3751.25,0.0170
3751.00,0.0169
3750.75,0.0169
3750.50,0.0169
3750.25,0.0169
3750.00,0.0169
3749.75,0.0168
3749.50,0.0168
3749.25,0.0167
3749.00,0.0167
3748.75,0.0168
3748.50,0.0169
3748.25,0.0169
3748.00,0.0169
3747.75,0.0169
3747.50,0.0168
3747.25,0.0168
3747.00,0.0167
3746.75,0.0167
3746.50,0.0167
3746.25,0.0167
3746.00,0.0168
3745.75,0.0169
3745.50,0.0169
3745.25,0.0169
3745.00,0.0170
3744.75,0.0173
3744.50,0.0178
3744.25,0.0179
3744.00,0.0173
3743.75,0.0171
3743.50,0.0170
3743.25,0.0170
3743.00,0.0170
3742.75,0.0169
3742.50,0.0169
3742.25,0.0168
3742.00,0.0168
3741.75,0.0169
3741.50,0.0169
3741.25,0.0170
3741.00,0.0170
3740.75,0.0170
3740.50,0.0170
3740.25,0.0169
3740.00,0.0169
3739.75,0.0169
3739.50,0.0169
3739.25,0.0169
3739.00,0.0169
3738.75,0.0169
3738.50,0.0168
3738.25,0.0167
3738.00,0.0167
3737.75,0.0167
3737.50,0.0167
3737.25,0.0168
3737.00,0.0168
3736.75,0.0169
3736.50,0.0170
3736.25,0.0170
3736.00,0.0170
3735.75,0.0171
3735.50,0.0172
3735.25,0.0172
3735.00,0.0173
3734.75,0.0172
3734.50,0.0170
3734.25,0.0169
3734.00,0.0168
3733.75,0.0168
3733.50,0.0168
3733.25,0.0168
3733.00,0.0168
3732.75,0.0168
3732.50,0.0169
3732.25,0.0169
3732.00,0.0169
3731.75,0.0169
3731.50,0.0167
3731.25,0.0167
3731.00,0.0168
3730.75,0.0168
3730.50,0.0169
3730.25,0.0169
3730.00,0.0170
3729.75,0.0170
3729.50,0.0170
3729.25,0.0170
3729.00,0.0170
3728.75,0.0169
3728.50,0.0169
3728.25,0.0168
3728.00,0.0168
3727.75,0.0168
3727.50,0.0169
3727.25,0.0170
3727.00,0.0170
3726.75,0.0170
3726.50,0.0169
3726.25,0.0168
3726.00,0.0168
3725.75,0.0168
3725.50,0.0168
3725.25,0.0169
3725.00,0.0170
3724.75,0.0170
3724.50,0.0170
3724.25,0.0169
3724.00,0.0169
3723.75,0.0170
3723.50,0.0170
3723.25,0.0171
3723.00,0.0171
3722.75,0.0170
3722.50,0.0171
3722.25,0.0171
3722.00,0.0171
3721.75,0.0170
3721.50,0.0169
3721.25,0.0169
3721.00,0.0168
3720.75,0.0168
3720.50,0.0168
3720.25,0.0168
3720.00,0.0168
3719.75,0.0169
3719.50,0.0169
3719.25,0.0170
3719.00,0.0170
3718.75,0.0170
3718.50,0.0170
3718.25,0.0170
3718.00,0.0170
3717.75,0.0170
3717.50,0.0170
3717.25,0.0170
3717.00,0.0169
3716.75,0.0169
3716.50,0.0169
3716.25,0.0168
3716.00,0.0168
3715.75,0.0168
3715.50,0.0168
3715.25,0.0168
3715.00,0.0168
3714.75,0.0168
3714.50,0.0168
3714.25,0.0169
3714.00,0.0169
3713.75,0.0169
3713.50,0.0169
3713.25,0.0169
3713.00,0.0169
3712.75,0.0168
3712.50,0.0168
3712.25,0.0167
3712.00,0.0167
3711.75,0.0167
3711.50,0.0168
3711.25,0.0169
3711.00,0.0170
3710.75,0.0171
3710.50,0.0170
3710.25,0.0170
3710.00,0.0169
3709.75,0.0168
3709.50,0.0167
3709.25,0.0166
3709.00,0.0167
3708.75,0.0168
3708.50,0.0169
3708.25,0.0170
3708.00,0.0170
3707.75,0.0170
3707.50,0.0170
3707.25,0.0170
3707.00,0.0171
3706.75,0.0171
3706.50,0.0171
3706.25,0.0171
3706.00,0.0171
3705.75,0.0171
3705.50,0.0172
3705.25,0.0172
3705.00,0.0172
3704.75,0.0172
3704.50,0.0171
3704.25,0.0171
3704.00,0.0171
3703.75,0.0170
3703.50,0.0170
3703.25,0.0169
3703.00,0.0169
3702.75,0.0168
3702.50,0.0169
3702.25,0.0169
3702.00,0.0170
3701.75,0.0170
3701.50,0.0169
3701.25,0.0168
3701.00,0.0168
3700.75,0.0168
3700.50,0.0169
3700.25,0.0169
3700.00,0.0170
3699.75,0.0171
3699.50,0.0171
3699.25,0.0172
3699.00,0.0172
3698.75,0.0172
3698.50,0.0172
3698.25,0.0172
3698.00,0.0172
3697.75,0.0172
3697.50,0.0171
3697.25,0.0171
3697.00,0.0171
3696.75,0.0171
3696.50,0.0171
3696.25,0.0171
3696.00,0.0170
3695.75,0.0171
3695.50,0.0171
3695.25,0.0172
3695.00,0.0172
3694.75,0.0172
3694.50,0.0172
3694.25,0.0171
3694.00,0.0171
3693.75,0.0170
3693.50,0.0170
3693.25,0.0170
3693.00,0.0170
3692.75,0.0169
3692.50,0.0169
3692.25,0.0168
3692.00,0.0169
3691.75,0.0169
3691.50,0.0170
3691.25,0.0170
3691.00,0.0170
3690.75,0.0170
3690.50,0.0169
3690.25,0.0169
3690.00,0.0168
3689.75,0.0168
3689.50,0.0167
3689.25,0.0166
3689.00,0.0165
3688.75,0.0164
3688.50,0.0164
3688.25,0.0165
3688.00,0.0167
3687.75,0.0168
3687.50,0.0169
3687.25,0.0170
3687.00,0.0170
3686.75,0.0170
3686.50,0.0170
3686.25,0.0170
3686.00,0.0170
3685.75,0.0170
3685.50,0.0170
3685.25,0.0170
3685.00,0.0170
3684.75,0.0169
3684.50,0.0169
3684.25,0.0169
3684.00,0.0169
3683.75,0.0169
3683.50,0.0169
3683.25,0.0169
3683.00,0.0168
3682.75,0.0168
3682.50,0.0168
3682.25,0.0169
3682.00,0.0169
3681.75,0.0169
3681.50,0.0169
3681.25,0.0169
3681.00,0.0168
3680.75,0.0168
3680.50,0.0168
3680.25,0.0168
3680.00,0.0168
3679.75,0.0169
3679.50,0.0168
3679.25,0.0168
3679.00,0.0168
3678.75,0.0168
3678.50,0.0169
3678.25,0.0169
3678.00,0.0169
3677.75,0.0169
3677.50,0.0169
3677.25,0.0168
3677.00,0.0168
3676.75,0.0168
3676.50,0.0168
3676.25,0.0169
3676.00,0.0169
3675.75,0.0169
3675.50,0.0168
3675.25,0.0167
3675.00,0.0167
3674.75,0.0166
3674.50,0.0165
3674.25,0.0165
3674.00,0.0166
3673.75,0.0166
3673.50,0.0167
3673.25,0.0167
3673.00,0.0167
3672.75,0.0167
3672.50,0.0167
3672.25,0.0167
3672.00,0.0167
3671.75,0.0168
3671.50,0.0168
3671.25,0.0168
3671.00,0.0167
3670.75,0.0167
3670.50,0.0168
3670.25,0.0168
3670.00,0.0169
3669.75,0.0170
3669.50,0.0170
3669.25,0.0169
3669.00,0.0169
3668.75,0.0168
3668.50,0.0168
3668.25,0.0168
3668.00,0.0168
3667.75,0.0169
3667.50,0.0169
3667.25,0.0169
3667.00,0.0169
3666.75,0.0169
3666.50,0.0169
3666.25,0.0168
3666.00,0.0168
3665.75,0.0168
3665.50,0.0168
3665.25,0.0169
3665.00,0.0169
3664.75,0.0169
3664.50,0.0170
3664.25,0.0170
3664.00,0.0170
3663.75,0.0170
3663.50,0.0170
3663.25,0.0170
3663.00,0.0169
3662.75,0.0169
3662.50,0.0168
3662.25,0.0168
3662.00,0.0168
3661.75,0.0168
3661.50,0.0168
3661.25,0.0169
3661.00,0.0169
3660.75,0.0169
3660.50,0.0170
3660.25,0.0170
3660.00,0.0170
3659.75,0.0170
3659.50,0.0170
3659.25,0.0170
3659.00,0.0170
3658.75,0.0170
3658.50,0.0170
3658.25,0.0171
3658.00,0.0171
3657.75,0.0171
3657.50,0.0170
3657.25,0.0169
3657.00,0.0169
3656.75,0.0168
3656.50,0.0168
3656.25,0.0168
3656.00,0.0168
3655.75,0.0168
3655.50,0.0169
3655.25,0.0170
3655.00,0.0170
3654.75,0.0170
3654.50,0.0170
3654.25,0.0170
3654.00,0.0170
3653.75,0.0170
3653.50,0.0170
3653.25,0.0171
3653.00,0.0171
3652.75,0.0171
3652.50,0.0171
3652.25,0.0171
3652.00,0.0170
3651.75,0.0169
3651.50,0.0167
3651.25,0.0166
3651.00,0.0166
3650.75,0.0167
3650.50,0.0170
3650.25,0.0171
3650.00,0.0172
3649.75,0.0173
3649.50,0.0172
3649.25,0.0172
3649.00,0.0171
3648.75,0.0170
3648.50,0.0170
3648.25,0.0170
3648.00,0.0171
3647.75,0.0170
3647.50,0.0170
3647.25,0.0170
3647.00,0.0170
3646.75,0.0170
3646.50,0.0170
3646.25,0.0170
3646.00,0.0171
3645.75,0.0171
3645.50,0.0172
3645.25,0.0173
3645.00,0.0173
3644.75,0.0173
3644.50,0.0173
3644.25,0.0172
3644.00,0.0172
3643.75,0.0172
3643.50,0.0172
3643.25,0.0172
3643.00,0.0172
3642.75,0.0171
3642.50,0.0171
3642.25,0.0171
3642.00,0.0171
3641.75,0.0172
3641.50,0.0172
3641.25,0.0172
3641.00,0.0172
3640.75,0.0171
3640.50,0.0170
3640.25,0.0169
3640.00,0.0169
3639.75,0.0169
3639.50,0.0170
3639.25,0.0171
3639.00,0.0172
3638.75,0.0172
3638.50,0.0172
3638.25,0.0172
3638.00,0.0172
3637.75,0.0172
3637.50,0.0173
3637.25,0.0173
3637.00,0.0173
3636.75,0.0172
3636.50,0.0172
3636.25,0.0172
3636.00,0.0172
3635.75,0.0171
3635.50,0.0171
3635.25,0.0170
3635.00,0.0170
3634.75,0.0170
3634.50,0.0169
3634.25,0.0169
3634.00,0.0170
3633.75,0.0171
3633.50,0.0172
3633.25,0.0173
3633.00,0.0173
3632.75,0.0173
3632.50,0.0173
3632.25,0.0172
3632.00,0.0171
3631.75,0.0171
3631.50,0.0171
3631.25,0.0171
3631.00,0.0172
3630.75,0.0172
3630.50,0.0172
3630.25,0.0171
3630.00,0.0170
3629.75,0.0170
3629.50,0.0170
3629.25,0.0171
3629.00,0.0172
3628.75,0.0172
3628.50,0.0172
3628.25,0.0170
3628.00,0.0170
3627.75,0.0170
3627.50,0.0171
3627.25,0.0172
3627.00,0.0172
3626.75,0.0172
3626.50,0.0172
3626.25,0.0171
3626.00,0.0171
3625.75,0.0170
3625.50,0.0171
3625.25,0.0171
3625.00,0.0171
3624.75,0.0170
3624.50,0.0170
3624.25,0.0169
3624.00,0.0169
3623.75,0.0169
3623.50,0.0169
3623.25,0.0170
3623.00,0.0171
3622.75,0.0172
3622.50,0.0172
3622.25,0.0172
3622.00,0.0172
3621.75,0.0173
3621.50,0.0172
3621.25,0.0172
3621.00,0.0171
3620.75,0.0169
3620.50,0.0168
3620.25,0.0168
3620.00,0.0168
3619.75,0.0169
3619.50,0.0170
3619.25,0.0171
3619.00,0.0170
3618.75,0.0170
3618.50,0.0170
3618.25,0.0171
3618.00,0.0171
3617.75,0.0172
3617.50,0.0172
3617.25,0.0172
3617.00,0.0172
3616.75,0.0172
3616.50,0.0172
3616.25,0.0172
3616.00,0.0172
3615.75,0.0172
3615.50,0.0173
3615.25,0.0174
3615.00,0.0174
3614.75,0.0175
3614.50,0.0174
3614.25,0.0172
3614.00,0.0171
3613.75,0.0169
3613.50,0.0169
3613.25,0.0169
3613.00,0.0169
3612.75,0.0170
3612.50,0.0171
3612.25,0.0170
3612.00,0.0170
3611.75,0.0170
3611.50,0.0170
3611.25,0.0171
3611.00,0.0171
3610.75,0.0171
3610.50,0.0170
3610.25,0.0170
3610.00,0.0170
3609.75,0.0171
3609.50,0.0171
3609.25,0.0172
3609.00,0.0171
3608.75,0.0169
3608.50,0.0169
3608.25,0.0169
3608.00,0.0170
3607.75,0.0171
3607.50,0.0172
3607.25,0.0173
3607.00,0.0173
3606.75,0.0171
3606.50,0.0170
3606.25,0.0170
3606.00,0.0170
3605.75,0.0171
3605.50,0.0172
3605.25,0.0172
3605.00,0.0172
3604.75,0.0172
3604.50,0.0172
3604.25,0.0172
3604.00,0.0173
3603.75,0.0173
3603.50,0.0173
3603.25,0.0173
3603.00,0.0173
3602.75,0.0173
3602.50,0.0173
3602.25,0.0174
3602.00,0.0174
3601.75,0.0174
3601.50,0.0173
3601.25,0.0173
3601.00,0.0172
3600.75,0.0172
3600.50,0.0172
3600.25,0.0172
3600.00,0.0173
3599.75,0.0174
3599.50,0.0174
3599.25,0.0174
3599.00,0.0174
3598.75,0.0173
3598.50,0.0173
3598.25,0.0173
3598.00,0.0172
3597.75,0.0172
3597.50,0.0171
3597.25,0.0171
3597.00,0.0171
3596.75,0.0172
3596.50,0.0172
3596.25,0.0173
3596.00,0.0173
3595.75,0.0173
3595.50,0.0173
3595.25,0.0172
3595.00,0.0172
3594.75,0.0173
3594.50,0.0173
3594.25,0.0174
3594.00,0.0174
3593.75,0.0174
3593.50,0.0173
3593.25,0.0172
3593.00,0.0171
3592.75,0.0170
3592.50,0.0170
3592.25,0.0170
3592.00,0.0170
3591.75,0.0171
3591.50,0.0171
3591.25,0.0172
3591.00,0.0172
3590.75,0.0172
3590.50,0.0172
3590.25,0.0172
3590.00,0.0172
3589.75,0.0172
3589.50,0.0172
3589.25,0.0172
3589.00,0.0172
3588.75,0.0172
3588.50,0.0172
3588.25,0.0172
3588.00,0.0173
3587.75,0.0174
3587.50,0.0174
3587.25,0.0174
3587.00,0.0174
3586.75,0.0174
3586.50,0.0173
3586.25,0.0172
3586.00,0.0171
3585.75,0.0171
3585.50,0.0172
3585.25,0.0173
3585.00,0.0173
3584.75,0.0174
3584.50,0.0174
3584.25,0.0174
3584.00,0.0173
3583.75,0.0173
3583.50,0.0172
3583.25,0.0172
3583.00,0.0172
3582.75,0.0172
3582.50,0.0171
3582.25,0.0171
3582.00,0.0171
3581.75,0.0172
3581.50,0.0172
3581.25,0.0172
3581.00,0.0173
3580.75,0.0173
3580.50,0.0173
3580.25,0.0173
3580.00,0.0173
3579.75,0.0172
3579.50,0.0172
3579.25,0.0173
3579.00,0.0173
3578.75,0.0173
3578.50,0.0173
3578.25,0.0173
3578.00,0.0172
3577.75,0.0172
3577.50,0.0172
3577.25,0.0171
3577.00,0.0170
3576.75,0.0170
3576.50,0.0169
3576.25,0.0170
3576.00,0.0171
3575.75,0.0172
3575.50,0.0172
3575.25,0.0173
3575.00,0.0173
3574.75,0.0173
3574.50,0.0173
3574.25,0.0173
3574.00,0.0173
3573.75,0.0172
3573.50,0.0172
3573.25,0.0172
3573.00,0.0172
3572.75,0.0172
3572.50,0.0172
3572.25,0.0172
3572.00,0.0172
3571.75,0.0172
3571.50,0.0172
3571.25,0.0172
3571.00,0.0172
3570.75,0.0173
3570.50,0.0173
3570.25,0.0174
3570.00,0.0174
3569.75,0.0173
3569.50,0.0172
3569.25,0.0172
3569.00,0.0171
3568.75,0.0171
3568.50,0.0171
3568.25,0.0171
3568.00,0.0171
3567.75,0.0170
3567.50,0.0170
3567.25,0.0170
3567.00,0.0170
3566.75,0.0171
3566.50,0.0172
3566.25,0.0173
3566.00,0.0174
3565.75,0.0174
3565.50,0.0174
3565.25,0.0174
3565.00,0.0174
3564.75,0.0173
3564.50,0.0173
3564.25,0.0173
3564.00,0.0173
3563.75,0.0173
3563.50,0.0173
3563.25,0.0173
3563.00,0.0173
3562.75,0.0173
3562.50,0.0173
3562.25,0.0173
3562.00,0.0173
3561.75,0.0173
3561.50,0.0173
3561.25,0.0173
3561.00,0.0173
3560.75,0.0173
3560.50,0.0174
3560.25,0.0174
3560.00,0.0174
3559.75,0.0174
3559.50,0.0173
3559.25,0.0173
3559.00,0.0172
3558.75,0.0172
3558.50,0.0172
3558.25,0.0172
3558.00,0.0172
3557.75,0.0172
3557.50,0.0172
3557.25,0.0172
3557.00,0.0172
3556.75,0.0172
3556.50,0.0173
3556.25,0.0173
3556.00,0.0173
3555.75,0.0173
3555.50,0.0174
3555.25,0.0174
3555.00,0.0173
3554.75,0.0173
3554.50,0.0172
3554.25,0.0171
3554.00,0.0171
3553.75,0.0171
3553.50,0.0171
3553.25,0.0172
3553.00,0.0173
3552.75,0.0174
3552.50,0.0174
3552.25,0.0174
3552.00,0.0174
3551.75,0.0173
3551.50,0.0173
3551.25,0.0172
3551.00,0.0172
3550.75,0.0172
3550.50,0.0172
3550.25,0.0172
3550.00,0.0173
3549.75,0.0173
3549.50,0.0173
3549.25,0.0173
3549.00,0.0173
3548.75,0.0172
3548.50,0.0172
3548.25,0.0172
3548.00,0.0172
3547.75,0.0172
3547.50,0.0172
3547.25,0.0173
3547.00,0.0173
3546.75,0.0173
3546.50,0.0173
3546.25,0.0173
3546.00,0.0173
3545.75,0.0173
3545.50,0.0173
3545.25,0.0172
3545.00,0.0172
3544.75,0.0171
3544.50,0.0171
3544.25,0.0172
3544.00,0.0173
3543.75,0.0173
3543.50,0.0173
3543.25,0.0174
3543.00,0.0174
3542.75,0.0175
3542.50,0.0175
3542.25,0.0174
3542.00,0.0174
3541.75,0.0173
3541.50,0.0173
3541.25,0.0172
3541.00,0.0172
3540.75,0.0172
3540.50,0.0172
3540.25,0.0172
3540.00,0.0172
3539.75,0.0172
3539.50,0.0172
3539.25,0.0172
3539.00,0.0172
3538.75,0.0172
3538.50,0.0172
3538.25,0.0172
3538.00,0.0173
3537.75,0.0173
3537.50,0.0173
3537.25,0.0173
3537.00,0.0173
3536.75,0.0174
3536.50,0.0174
3536.25,0.0174
3536.00,0.0173
3535.75,0.0173
3535.50,0.0173
3535.25,0.0173
3535.00,0.0173
3534.75,0.0173
3534.50,0.0173
3534.25,0.0173
3534.00,0.0173
3533.75,0.0172
3533.50,0.0173
3533.25,0.0173
3533.00,0.0173
3532.75,0.0173
3532.50,0.0172
3532.25,0.0172
3532.00,0.0172
3531.75,0.0172
3531.50,0.0174
3531.25,0.0175
3531.00,0.0176
3530.75,0.0176
3530.50,0.0176
3530.25,0.0175
3530.00,0.0174
3529.75,0.0173
3529.50,0.0173
3529.25,0.0174
3529.00,0.0175
3528.75,0.0175
3528.50,0.0175
3528.25,0.0175
3528.00,0.0175
3527.75,0.0174
3527.50,0.0174
3527.25,0.0174
3527.00,0.0173
3526.75,0.0173
3526.50,0.0172
3526.25,0.0172
3526.00,0.0171
3525.75,0.0171
3525.50,0.0171
3525.25,0.0172
3525.00,0.0173
3524.75,0.0174
3524.50,0.0175
3524.25,0.0175
3524.00,0.0175
3523.75,0.0174
3523.50,0.0174
3523.25,0.0174
3523.00,0.0174
3522.75,0.0174
3522.50,0.0174
3522.25,0.0173
3522.00,0.0173
3521.75,0.0173
3521.50,0.0174
3521.25,0.0175
3521.00,0.0175
3520.75,0.0175
3520.50,0.0175
3520.25,0.0175
3520.00,0.0174
3519.75,0.0173
3519.50,0.0173
3519.25,0.0173
3519.00,0.0173
3518.75,0.0173
3518.50,0.0173
3518.25,0.0173
3518.00,0.0173
3517.75,0.0174
3517.50,0.0175
3517.25,0.0175
3517.00,0.0175
3516.75,0.0174
3516.50,0.0174
3516.25,0.0174
3516.00,0.0174
3515.75,0.0174
3515.50,0.0174
3515.25,0.0174
3515.00,0.0174
3514.75,0.0174
3514.50,0.0173
3514.25,0.0173
3514.00,0.0173
3513.75,0.0173
3513.50,0.0173
3513.25,0.0172
3513.00,0.0172
3512.75,0.0172
3512.50,0.0172
3512.25,0.0172
3512.00,0.0173
3511.75,0.0173
3511.50,0.0172
3511.25,0.0172
3511.00,0.0172
3510.75,0.0172
3510.50,0.0172
3510.25,0.0173
3510.00,0.0174
3509.75,0.0175
3509.50,0.0176
3509.25,0.0176
3509.00,0.0175
3508.75,0.0175
3508.50,0.0174
3508.25,0.0174
3508.00,0.0174
3507.75,0.0174
3507.50,0.0174
3507.25,0.0173
3507.00,0.0173
3506.75,0.0173
3506.50,0.0173
3506.25,0.0173
3506.00,0.0173
3505.75,0.0174
3505.50,0.0174
3505.25,0.0174
3505.00,0.0174
3504.75,0.0173
3504.50,0.0173
3504.25,0.0172
3504.00,0.0172
3503.75,0.0172
3503.50,0.0172
3503.25,0.0173
3503.00,0.0173
3502.75,0.0173
3502.50,0.0173
3502.25,0.0174
3502.00,0.0174
3501.75,0.0174
3501.50,0.0174
3501.25,0.0174
3501.00,0.0173
3500.75,0.0173
3500.50,0.0173
3500.25,0.0173
3500.00,0.0173
3499.75,0.0173
3499.50,0.0172
3499.25,0.0172
3499.00,0.0172
3498.75,0.0173
3498.50,0.0174
3498.25,0.0174
3498.00,0.0175
3497.75,0.0175
3497.50,0.0175
3497.25,0.0174
3497.00,0.0174
3496.75,0.0174
3496.50,0.0175
3496.25,0.0175
3496.00,0.0175
3495.75,0.0174
3495.50,0.0174
3495.25,0.0174
3495.00,0.0174
3494.75,0.0174
3494.50,0.0174
3494.25,0.0174
3494.00,0.0174
3493.75,0.0175
3493.50,0.0175
3493.25,0.0175
3493.00,0.0175
3492.75,0.0175
3492.50,0.0174
3492.25,0.0174
3492.00,0.0174
3491.75,0.0174
3491.50,0.0173
3491.25,0.0173
3491.00,0.0173
3490.75,0.0173
3490.50,0.0173
3490.25,0.0173
3490.00,0.0173
3489.75,0.0173
3489.50,0.0173
3489.25,0.0173
3489.00,0.0173
3488.75,0.0173
3488.50,0.0173
3488.25,0.0174
3488.00,0.0175
3487.75,0.0175
3487.50,0.0175
3487.25,0.0175
3487.00,0.0174
3486.75,0.0174
3486.50,0.0173
3486.25,0.0173
3486.00,0.0173
3485.75,0.0174
3485.50,0.0174
3485.25,0.0175
3485.00,0.0175
3484.75,0.0175
3484.50,0.0175
3484.25,0.0175
3484.00,0.0174
3483.75,0.0173
3483.50,0.0172
3483.25,0.0172
3483.00,0.0171
3482.75,0.0171
3482.50,0.0171
3482.25,0.0172
3482.00,0.0172
3481.75,0.0172
3481.50,0.0173
3481.25,0.0173
3481.00,0.0173
3480.75,0.0173
3480.50,0.0173
3480.25,0.0173
3480.00,0.0173
3479.75,0.0174
3479.50,0.0174
3479.25,0.0174
3479.00,0.0174
3478.75,0.0173
3478.50,0.0172
3478.25,0.0172
3478.00,0.0171
3477.75,0.0171
3477.50,0.0172
3477.25,0.0172
3477.00,0.0173
3476.75,0.0174
3476.50,0.0174
3476.25,0.0175
3476.00,0.0175
3475.75,0.0175
3475.50,0.0175
3475.25,0.0174
3475.00,0.0174
3474.75,0.0174
3474.50,0.0174
3474.25,0.0174
3474.00,0.0174
3473.75,0.0174
3473.50,0.0174
3473.25,0.0174
3473.00,0.0174
3472.75,0.0174
3472.50,0.0173
3472.25,0.0173
3472.00,0.0172
3471.75,0.0172
3471.50,0.0172
3471.25,0.0173
3471.00,0.0174
3470.75,0.0175
3470.50,0.0175
3470.25,0.0175
3470.00,0.0175
3469.75,0.0175
3469.50,0.0175
3469.25,0.0174
3469.00,0.0174
3468.75,0.0174
3468.50,0.0174
3468.25,0.0174
3468.00,0.0174
3467.75,0.0173
3467.50,0.0173
3467.25,0.0173
3467.00,0.0173
3466.75,0.0173
3466.50,0.0173
3466.25,0.0173
3466.00,0.0173
3465.75,0.0173
3465.50,0.0173
3465.25,0.0173
3465.00,0.0173
3464.75,0.0173
3464.50,0.0173
3464.25,0.0174
3464.00,0.0174
3463.75,0.0174
3463.50,0.0174
3463.25,0.0174
3463.00,0.0174
3462.75,0.0174
3462.50,0.0174
3462.25,0.0174
3462.00,0.0174
3461.75,0.0174
3461.50,0.0174
3461.25,0.0173
3461.00,0.0173
3460.75,0.0172
3460.50,0.0172
3460.25,0.0172
3460.00,0.0172
3459.75,0.0172
3459.50,0.0173
3459.25,0.0174
3459.00,0.0175
3458.75,0.0175
3458.50,0.0175
3458.25,0.0174
3458.00,0.0174
3457.75,0.0174
3457.50,0.0174
3457.25,0.0174
3457.00,0.0174
3456.75,0.0174
3456.50,0.0173
3456.25,0.0173
3456.00,0.0174
3455.75,0.0174
3455.50,0.0174
3455.25,0.0174
3455.00,0.0174
3454.75,0.0174
3454.50,0.0174
3454.25,0.0174
3454.00,0.0174
3453.75,0.0174
3453.50,0.0173
3453.25,0.0173
3453.00,0.0173
3452.75,0.0173
3452.50,0.0173
3452.25,0.0173
3452.00,0.0174
3451.75,0.0174
3451.50,0.0174
3451.25,0.0174
3451.00,0.0173
3450.75,0.0174
3450.50,0.0174
3450.25,0.0175
3450.00,0.0175
3449.75,0.0175
3449.50,0.0174
3449.25,0.0174
3449.00,0.0174
3448.75,0.0174
3448.50,0.0174
3448.25,0.0174
3448.00,0.0174
3447.75,0.0174
3447.50,0.0174
3447.25,0.0174
3447.00,0.0174
3446.75,0.0174
3446.50,0.0174
3446.25,0.0173
3446.00,0.0172
3445.75,0.0172
3445.50,0.0171
3445.25,0.0172
3445.00,0.0172
3444.75,0.0172
3444.50,0.0173
3444.25,0.0173
3444.00,0.0173
3443.75,0.0174
3443.50,0.0174
3443.25,0.0174
3443.00,0.0174
3442.75,0.0175
3442.50,0.0174
3442.25,0.0174
3442.00,0.0174
3441.75,0.0173
3441.50,0.0173
3441.25,0.0173
3441.00,0.0173
3440.75,0.0173
3440.50,0.0174
3440.25,0.0175
3440.00,0.0174
3439.75,0.0174
3439.50,0.0173
3439.25,0.0172
3439.00,0.0172
3438.75,0.0172
3438.50,0.0172
3438.25,0.0172
3438.00,0.0173
3437.75,0.0173
3437.50,0.0173
3437.25,0.0173
3437.00,0.0173
3436.75,0.0174
3436.50,0.0174
3436.25,0.0174
3436.00,0.0174
3435.75,0.0174
3435.50,0.0173
3435.25,0.0173
3435.00,0.0173
3434.75,0.0173
3434.50,0.0173
3434.25,0.0174
3434.00,0.0174
3433.75,0.0174
3433.50,0.0174
3433.25,0.0174
3433.00,0.0174
3432.75,0.0174
3432.50,0.0174
3432.25,0.0174
3432.00,0.0174
3431.75,0.0174
3431.50,0.0174
3431.25,0.0173
3431.00,0.0173
3430.75,0.0173
3430.50,0.0173
3430.25,0.0173
3430.00,0.0173
3429.75,0.0173
3429.50,0.0173
3429.25,0.0173
3429.00,0.0172
3428.75,0.0172
3428.50,0.0172
3428.25,0.0172
3428.00,0.0173
3427.75,0.0173
3427.50,0.0173
3427.25,0.0173
3427.00,0.0173
3426.75,0.0173
3426.50,0.0173
3426.25,0.0173
3426.00,0.0173
3425.75,0.0173
3425.50,0.0172
3425.25,0.0172
3425.00,0.0172
3424.75,0.0172
3424.50,0.0172
3424.25,0.0173
3424.00,0.0173
3423.75,0.0173
3423.50,0.0174
3423.25,0.0174
3423.00,0.0175
3422.75,0.0175
3422.50,0.0175
3422.25,0.0174
3422.00,0.0174
3421.75,0.0173
3421.50,0.0173
3421.25,0.0174
3421.00,0.0174
3420.75,0.0174
3420.50,0.0174
3420.25,0.0174
3420.00,0.0173
3419.75,0.0173
3419.50,0.0174
3419.25,0.0174
3419.00,0.0174
3418.75,0.0174
3418.50,0.0174
3418.25,0.0174
3418.00,0.0174
3417.75,0.0174
3417.50,0.0174
3417.25,0.0174
3417.00,0.0174
3416.75,0.0174
3416.50,0.0173
3416.25,0.0173
3416.00,0.0173
3415.75,0.0172
3415.50,0.0172
3415.25,0.0172
3415.00,0.0172
3414.75,0.0173
3414.50,0.0173
3414.25,0.0173
3414.00,0.0173
3413.75,0.0173
3413.50,0.0173
3413.25,0.0173
3413.00,0.0172
3412.75,0.0172
3412.50,0.0172
3412.25,0.0172
3412.00,0.0173
3411.75,0.0173
3411.50,0.0174
3411.25,0.0174
3411.00,0.0173
3410.75,0.0173
3410.50,0.0173
3410.25,0.0173
3410.00,0.0173
3409.75,0.0173
3409.50,0.0173
3409.25,0.0173
3409.00,0.0174
3408.75,0.0175
3408.50,0.0175
3408.25,0.0174
3408.00,0.0174
3407.75,0.0173
3407.50,0.0173
3407.25,0.0173
3407.00,0.0174
3406.75,0.0174
3406.50,0.0174
3406.25,0.0174
3406.00,0.0174
3405.75,0.0174
3405.50,0.0174
3405.25,0.0174
3405.00,0.0174
3404.75,0.0173
3404.50,0.0173
3404.25,0.0172
3404.00,0.0172
3403.75,0.0171
3403.50,0.0171
3403.25,0.0171
3403.00,0.0172
3402.75,0.0172
3402.50,0.0172
3402.25,0.0173
3402.00,0.0173
3401.75,0.0174
3401.50,0.0174
3401.25,0.0174
3401.00,0.0174
3400.75,0.0174
3400.50,0.0174
3400.25,0.0173
3400.00,0.0173
3399.75,0.0172
3399.50,0.0172
3399.25,0.0172
3399.00,0.0173
3398.75,0.0173
3398.50,0.0173
3398.25,0.0174
3398.00,0.0174
3397.75,0.0174
3397.50,0.0173
3397.25,0.0173
3397.00,0.0173
3396.75,0.0173
3396.50,0.0173
3396.25,0.0173
3396.00,0.0174
3395.75,0.0174
3395.50,0.0174
3395.25,0.0174
3395.00,0.0174
3394.75,0.0174
3394.50,0.0174
3394.25,0.0173
3394.00,0.0173
3393.75,0.0173
3393.50,0.0173
3393.25,0.0174
3393.00,0.0174
3392.75,0.0174
3392.50,0.0174
3392.25,0.0174
3392.00,0.0174
3391.75,0.0175
3391.50,0.0175
3391.25,0.0175
3391.00,0.0174
3390.75,0.0173
3390.50,0.0173
3390.25,0.0172
3390.00,0.0173
3389.75,0.0173
3389.50,0.0173
3389.25,0.0173
3389.00,0.0173
3388.75,0.0173
3388.50,0.0174
3388.25,0.0174
3388.00,0.0173
3387.75,0.0173
3387.50,0.0172
3387.25,0.0173
3387.00,0.0173
3386.75,0.0174
3386.50,0.0174
3386.25,0.0174
3386.00,0.0173
3385.75,0.0172
3385.50,0.0172
3385.25,0.0172
3385.00,0.0172
3384.75,0.0173
3384.50,0.0174
3384.25,0.0174
3384.00,0.0174
3383.75,0.0174
3383.50,0.0174
3383.25,0.0174
3383.00,0.0173
3382.75,0.0173
3382.50,0.0173
3382.25,0.0173
3382.00,0.0173
3381.75,0.0174
3381.50,0.0175
3381.25,0.0175
3381.00,0.0176
3380.75,0.0176
3380.50,0.0175
3380.25,0.0175
3380.00,0.0174
3379.75,0.0174
3379.50,0.0174
3379.25,0.0174
3379.00,0.0174
3378.75,0.0174
3378.50,0.0175
3378.25,0.0175
3378.00,0.0175
3377.75,0.0175
3377.50,0.0175
3377.25,0.0175
3377.00,0.0175
3376.75,0.0174
3376.50,0.0174
3376.25,0.0174
3376.00,0.0173
3375.75,0.0173
3375.50,0.0172
3375.25,0.0172
3375.00,0.0172
3374.75,0.0173
3374.50,0.0173
3374.25,0.0173
3374.00,0.0172
3373.75,0.0172
3373.50,0.0172
3373.25,0.0172
3373.00,0.0172
3372.75,0.0172
3372.50,0.0172
3372.25,0.0172
3372.00,0.0172
3371.75,0.0173
3371.50,0.0173
3371.25,0.0173
3371.00,0.0174
3370.75,0.0174
3370.50,0.0174
3370.25,0.0175
3370.00,0.0174
3369.75,0.0174
3369.50,0.0173
3369.25,0.0172
3369.00,0.0172
3368.75,0.0172
3368.50,0.0172
3368.25,0.0172
3368.00,0.0173
3367.75,0.0173
3367.50,0.0173
3367.25,0.0173
3367.00,0.0173
3366.75,0.0173
3366.50,0.0173
3366.25,0.0173
3366.00,0.0173
3365.75,0.0173
3365.50,0.0173
3365.25,0.0173
3365.00,0.0173
3364.75,0.0174
3364.50,0.0174
3364.25,0.0174
3364.00,0.0174
3363.75,0.0174
3363.50,0.0174
3363.25,0.0174
3363.00,0.0173
3362.75,0.0173
3362.50,0.0173
3362.25,0.0172
3362.00,0.0172
3361.75,0.0172
3361.50,0.0172
3361.25,0.0173
3361.00,0.0173
3360.75,0.0173
3360.50,0.0173
3360.25,0.0173
3360.00,0.0173
3359.75,0.0174
3359.50,0.0174
3359.25,0.0173
3359.00,0.0173
3358.75,0.0173
3358.50,0.0173
3358.25,0.0173
3358.00,0.0173
3357.75,0.0174
3357.50,0.0174
3357.25,0.0175
3357.00,0.0175
3356.75,0.0174
3356.50,0.0174
3356.25,0.0174
3356.00,0.0174
3355.75,0.0174
3355.50,0.0174
3355.25,0.0174
3355.00,0.0174
3354.75,0.0174
3354.50,0.0174
3354.25,0.0174
3354.00,0.0174
3353.75,0.0174
3353.50,0.0173
3353.25,0.0173
3353.00,0.0173
3352.75,0.0173
3352.50,0.0173
3352.25,0.0173
3352.00,0.0173
3351.75,0.0173
3351.50,0.0173
3351.25,0.0173
3351.00,0.0173
3350.75,0.0172
3350.50,0.0172
3350.25,0.0173
3350.00,0.0173
3349.75,0.0173
3349.50,0.0173
3349.25,0.0172
3349.00,0.0172
3348.75,0.0172
3348.50,0.0172
3348.25,0.0172
3348.00,0.0172
3347.75,0.0173
3347.50,0.0173
3347.25,0.0174
3347.00,0.0174
3346.75,0.0173
3346.50,0.0173
3346.25,0.0172
3346.00,0.0173
3345.75,0.0173
3345.50,0.0173
3345.25,0.0173
3345.00,0.0173
3344.75,0.0173
3344.50,0.0173
3344.25,0.0173
3344.00,0.0173
3343.75,0.0173
3343.50,0.0173
3343.25,0.0172
3343.00,0.0172
3342.75,0.0172
3342.50,0.0172
3342.25,0.0172
3342.00,0.0172
3341.75,0.0173
3341.50,0.0174
3341.25,0.0174
3341.00,0.0175
3340.75,0.0175
3340.50,0.0174
3340.25,0.0174
3340.00,0.0173
3339.75,0.0173
3339.50,0.0173
3339.25,0.0174
3339.00,0.0174
3338.75,0.0174
3338.50,0.0175
3338.25,0.0175
3338.00,0.0174
3337.75,0.0174
3337.50,0.0173
3337.25,0.0173
3337.00,0.0173
3336.75,0.0174
3336.50,0.0174
3336.25,0.0174
3336.00,0.0175
3335.75,0.0174
3335.50,0.0174
3335.25,0.0174
3335.00,0.0174
3334.75,0.0173
3334.50,0.0173
3334.25,0.0173
3334.00,0.0173
3333.75,0.0173
3333.50,0.0173
3333.25,0.0174
3333.00,0.0174
3332.75,0.0174
3332.50,0.0175
3332.25,0.0175
3332.00,0.0175
3331.75,0.0174
3331.50,0.0174
3331.25,0.0174
3331.00,0.0174
3330.75,0.0174
3330.50,0.0174
3330.25,0.0173
3330.00,0.0173
3329.75,0.0174
3329.50,0.0174
3329.25,0.0174
3329.00,0.0174
3328.75,0.0174
3328.50,0.0174
3328.25,0.0174
3328.00,0.0175
3327.75,0.0175
3327.50,0.0175
3327.25,0.0175
3327.00,0.0174
3326.75,0.0174
3326.50,0.0173
3326.25,0.0172
3326.00,0.0172
3325.75,0.0172
3325.50,0.0172
3325.25,0.0173
3325.00,0.0174
3324.75,0.0175
3324.50,0.0175
3324.25,0.0175
3324.00,0.0174
3323.75,0.0174
3323.50,0.0173
3323.25,0.0173
3323.00,0.0173
3322.75,0.0174
3322.50,0.0174
3322.25,0.0174
3322.00,0.0174
3321.75,0.0173
3321.50,0.0173
3321.25,0.0173
3321.00,0.0173
3320.75,0.0173
3320.50,0.0174
3320.25,0.0173
3320.00,0.0173
3319.75,0.0172
3319.50,0.0172
3319.25,0.0172
3319.00,0.0172
3318.75,0.0173
3318.50,0.0174
3318.25,0.0174
3318.00,0.0174
3317.75,0.0174
3317.50,0.0174
3317.25,0.0173
3317.00,0.0173
3316.75,0.0172
3316.50,0.0172
3316.25,0.0171
3316.00,0.0172
3315.75,0.0172
3315.50,0.0172
3315.25,0.0172
3315.00,0.0173
3314.75,0.0173
3314.50,0.0173
3314.25,0.0173
3314.00,0.0173
3313.75,0.0173
3313.50,0.0173
3313.25,0.0174
3313.00,0.0174
3312.75,0.0174
3312.50,0.0174
3312.25,0.0173
3312.00,0.0173
3311.75,0.0173
3311.50,0.0172
3311.25,0.0172
3311.00,0.0173
3310.75,0.0173
3310.50,0.0173
3310.25,0.0173
3310.00,0.0173
3309.75,0.0173
3309.50,0.0173
3309.25,0.0173
3309.00,0.0173
3308.75,0.0173
3308.50,0.0173
3308.25,0.0173
3308.00,0.0173
3307.75,0.0173
3307.50,0.0173
3307.25,0.0173
3307.00,0.0173
3306.75,0.0173
3306.50,0.0173
3306.25,0.0173
3306.00,0.0173
3305.75,0.0173
3305.50,0.0173
3305.25,0.0173
3305.00,0.0172
3304.75,0.0173
3304.50,0.0173
3304.25,0.0173
3304.00,0.0173
3303.75,0.0174
3303.50,0.0174
3303.25,0.0174
3303.00,0.0174
3302.75,0.0174
3302.50,0.0174
3302.25,0.0174
3302.00,0.0174
3301.75,0.0174
3301.50,0.0174
3301.25,0.0175
3301.00,0.0174
3300.75,0.0174
3300.50,0.0173
3300.25,0.0173
3300.00,0.0173
3299.75,0.0173
3299.50,0.0173
3299.25,0.0173
3299.00,0.0172
3298.75,0.0171
3298.50,0.0171
3298.25,0.0171
3298.00,0.0172
3297.75,0.0172
3297.50,0.0173
3297.25,0.0174
3297.00,0.0174
3296.75,0.0174
3296.50,0.0174
3296.25,0.0174
3296.00,0.0173
3295.75,0.0173
3295.50,0.0173
3295.25,0.0172
3295.00,0.0172
3294.75,0.0172
3294.50,0.0172
3294.25,0.0173
3294.00,0.0173
3293.75,0.0173
3293.50,0.0173
3293.25,0.0173
3293.00,0.0173
3292.75,0.0173
3292.50,0.0173
3292.25,0.0173
3292.00,0.0173
3291.75,0.0173
3291.50,0.0173
3291.25,0.0173
3291.00,0.0173
3290.75,0.0173
3290.50,0.0172
3290.25,0.0172
3290.00,0.0172
3289.75,0.0172
3289.50,0.0173
3289.25,0.0173
3289.00,0.0174
3288.75,0.0174
3288.50,0.0175
3288.25,0.0175
3288.00,0.0175
3287.75,0.0175
3287.50,0.0175
3287.25,0.0174
3287.00,0.0174
3286.75,0.0174
3286.50,0.0173
3286.25,0.0173
3286.00,0.0172
3285.75,0.0172
3285.50,0.0172
3285.25,0.0172
3285.00,0.0173
3284.75,0.0173
3284.50,0.0174
3284.25,0.0174
3284.00,0.0174
3283.75,0.0173
3283.50,0.0173
3283.25,0.0172
3283.00,0.0172
3282.75,0.0172
3282.50,0.0172
3282.25,0.0173
3282.00,0.0173
3281.75,0.0173
3281.50,0.0173
3281.25,0.0173
3281.00,0.0174
3280.75,0.0173
3280.50,0.0173
3280.25,0.0173
3280.00,0.0173
3279.75,0.0173
3279.50,0.0173
3279.25,0.0173
3279.00,0.0173
3278.75,0.0173
3278.50,0.0173
3278.25,0.0173
3278.00,0.0173
3277.75,0.0172
3277.50,0.0172
3277.25,0.0172
3277.00,0.0172
3276.75,0.0173
3276.50,0.0173
3276.25,0.0173
3276.00,0.0173
3275.75,0.0173
3275.50,0.0173
3275.25,0.0173
3275.00,0.0173
3274.75,0.0173
3274.50,0.0173
3274.25,0.0174
3274.00,0.0174
3273.75,0.0174
3273.50,0.0173
3273.25,0.0172
3273.00,0.0172
3272.75,0.0171
3272.50,0.0171
3272.25,0.0171
3272.00,0.0172
3271.75,0.0172
3271.50,0.0173
3271.25,0.0173
3271.00,0.0174
3270.75,0.0174
3270.50,0.0174
3270.25,0.0173
3270.00,0.0174
3269.75,0.0174
3269.50,0.0174
3269.25,0.0174
3269.00,0.0173
3268.75,0.0173
3268.50,0.0172
3268.25,0.0172
3268.00,0.0172
3267.75,0.0172
3267.50,0.0172
3267.25,0.0172
3267.00,0.0173
3266.75,0.0173
3266.50,0.0173
3266.25,0.0173
3266.00,0.0174
3265.75,0.0174
3265.50,0.0173
3265.25,0.0173
3265.00,0.0173
3264.75,0.0172
3264.50,0.0173
3264.25,0.0173
3264.00,0.0174
3263.75,0.0174
3263.50,0.0174
3263.25,0.0174
3263.00,0.0173
3262.75,0.0173
3262.50,0.0172
3262.25,0.0172
3262.00,0.0172
3261.75,0.0172
3261.50,0.0172
3261.25,0.0172
3261.00,0.0173
3260.75,0.0173
3260.50,0.0173
3260.25,0.0173
3260.00,0.0173
3259.75,0.0173
3259.50,0.0173
3259.25,0.0173
3259.00,0.0173
3258.75,0.0173
3258.50,0.0172
3258.25,0.0172
3258.00,0.0172
3257.75,0.0172
3257.50,0.0173
3257.25,0.0173
3257.00,0.0173
3256.75,0.0173
3256.50,0.0172
3256.25,0.0172
3256.00,0.0172
3255.75,0.0173
3255.50,0.0173
3255.25,0.0174
3255.00,0.0173
3254.75,0.0173
3254.50,0.0173
3254.25,0.0173
3254.00,0.0173
3253.75,0.0174
3253.50,0.0174
3253.25,0.0174
3253.00,0.0173
3252.75,0.0173
3252.50,0.0173
3252.25,0.0172
3252.00,0.0172
3251.75,0.0172
3251.50,0.0172
3251.25,0.0172
3251.00,0.0172
3250.75,0.0172
3250.50,0.0172
3250.25,0.0172
3250.00,0.0171
3249.75,0.0171
3249.50,0.0171
3249.25,0.0171
3249.00,0.0171
3248.75,0.0172
3248.50,0.0172
3248.25,0.0172
3248.00,0.0172
3247.75,0.0172
3247.50,0.0172
3247.25,0.0172
3247.00,0.0173
3246.75,0.0173
3246.50,0.0173
3246.25,0.0173
3246.00,0.0173
3245.75,0.0173
3245.50,0.0173
3245.25,0.0173
3245.00,0.0173
3244.75,0.0173
3244.50,0.0173
3244.25,0.0173
3244.00,0.0173
3243.75,0.0173
3243.50,0.0173
3243.25,0.0172
3243.00,0.0172
3242.75,0.0172
3242.50,0.0172
3242.25,0.0172
3242.00,0.0172
3241.75,0.0172
3241.50,0.0172
3241.25,0.0172
3241.00,0.0173
3240.75,0.0173
3240.50,0.0173
3240.25,0.0173
3240.00,0.0173
3239.75,0.0174
3239.50,0.0174
3239.25,0.0174
3239.00,0.0173
3238.75,0.0173
3238.50,0.0173
3238.25,0.0173
3238.00,0.0173
3237.75,0.0173
3237.50,0.0173
3237.25,0.0172
3237.00,0.0172
3236.75,0.0172
3236.50,0.0171
3236.25,0.0171
3236.00,0.0171
3235.75,0.0171
3235.50,0.0171
3235.25,0.0172
3235.00,0.0172
3234.75,0.0172
3234.50,0.0172
3234.25,0.0172
3234.00,0.0172
3233.75,0.0172
3233.50,0.0173
3233.25,0.0173
3233.00,0.0173
3232.75,0.0173
3232.50,0.0173
3232.25,0.0173
3232.00,0.0173
3231.75,0.0173
3231.50,0.0173
3231.25,0.0173
3231.00,0.0173
3230.75,0.0173
3230.50,0.0173
3230.25,0.0173
3230.00,0.0173
3229.75,0.0173
3229.50,0.0172
3229.25,0.0172
3229.00,0.0172
3228.75,0.0172
3228.50,0.0172
3228.25,0.0172
3228.00,0.0173
3227.75,0.0173
3227.50,0.0173
3227.25,0.0173
3227.00,0.0173
3226.75,0.0173
3226.50,0.0172
3226.25,0.0172
3226.00,0.0172
3225.75,0.0172
3225.50,0.0172
3225.25,0.0172
3225.00,0.0173
3224.75,0.0173
3224.50,0.0174
3224.25,0.0174
3224.00,0.0175
3223.75,0.0175
3223.50,0.0174
3223.25,0.0174
3223.00,0.0173
3222.75,0.0173
3222.50,0.0173
3222.25,0.0173
3222.00,0.0173
3221.75,0.0173
3221.50,0.0172
3221.25,0.0172
3221.00,0.0172
3220.75,0.0173
3220.50,0.0173
3220.25,0.0173
3220.00,0.0173
3219.75,0.0173
3219.50,0.0173
3219.25,0.0173
3219.00,0.0173
3218.75,0.0173
3218.50,0.0173
3218.25,0.0173
3218.00,0.0173
3217.75,0.0173
3217.50,0.0173
3217.25,0.0173
3217.00,0.0173
3216.75,0.0173
3216.50,0.0174
3216.25,0.0174
3216.00,0.0174
3215.75,0.0173
3215.50,0.0173
3215.25,0.0173
3215.00,0.0173
3214.75,0.0173
3214.50,0.0173
3214.25,0.0173
3214.00,0.0173
3213.75,0.0173
3213.50,0.0173
3213.25,0.0173
3213.00,0.0172
3212.75,0.0172
3212.50,0.0172
3212.25,0.0171
3212.00,0.0171
3211.75,0.0171
3211.50,0.0172
3211.25,0.0172
3211.00,0.0173
3210.75,0.0173
3210.50,0.0174
3210.25,0.0174
3210.00,0.0174
3209.75,0.0174
3209.50,0.0175
3209.25,0.0175
3209.00,0.0175
3208.75,0.0175
3208.50,0.0174
3208.25,0.0174
3208.00,0.0174
3207.75,0.0173
3207.50,0.0173
3207.25,0.0173
3207.00,0.0172
3206.75,0.0172
3206.50,0.0172
3206.25,0.0172
3206.00,0.0172
3205.75,0.0173
3205.50,0.0173
3205.25,0.0173
3205.00,0.0173
3204.75,0.0173
3204.50,0.0173
3204.25,0.0173
3204.00,0.0173
3203.75,0.0173
3203.50,0.0173
3203.25,0.0173
3203.00,0.0173
3202.75,0.0173
3202.50,0.0173
3202.25,0.0173
3202.00,0.0173
3201.75,0.0172
3201.50,0.0172
3201.25,0.0172
3201.00,0.0172
3200.75,0.0173
3200.50,0.0173
3200.25,0.0173
3200.00,0.0173
3199.75,0.0172
3199.50,0.0172
3199.25,0.0172
3199.00,0.0172
3198.75,0.0172
3198.50,0.0172
3198.25,0.0172
3198.00,0.0172
3197.75,0.0172
3197.50,0.0171
3197.25,0.0171
3197.00,0.0172
3196.75,0.0173
3196.50,0.0174
3196.25,0.0175
3196.00,0.0175
3195.75,0.0174
3195.50,0.0174
3195.25,0.0173
3195.00,0.0173
3194.75,0.0173
3194.50,0.0173
3194.25,0.0173
3194.00,0.0173
3193.75,0.0173
3193.50,0.0173
3193.25,0.0173
3193.00,0.0173
3192.75,0.0173
3192.50,0.0173
3192.25,0.0173
3192.00,0.0173
3191.75,0.0172
3191.50,0.0172
3191.25,0.0171
3191.00,0.0171
3190.75,0.0171
3190.50,0.0171
3190.25,0.0172
3190.00,0.0172
3189.75,0.0173
3189.50,0.0173
3189.25,0.0173
3189.00,0.0173
3188.75,0.0174
3188.50,0.0174
3188.25,0.0174
3188.00,0.0174
3187.75,0.0174
3187.50,0.0173
3187.25,0.0172
3187.00,0.0171
3186.75,0.0171
3186.50,0.0171
3186.25,0.0171
3186.00,0.0171
3185.75,0.0172
3185.50,0.0172
3185.25,0.0172
3185.00,0.0172
3184.75,0.0173
3184.50,0.0173
3184.25,0.0173
3184.00,0.0173
3183.75,0.0173
3183.50,0.0173
3183.25,0.0173
3183.00,0.0174
3182.75,0.0174
3182.50,0.0174
3182.25,0.0174
3182.00,0.0174
3181.75,0.0174
3181.50,0.0174
3181.25,0.0174
3181.00,0.0175
3180.75,0.0174
3180.50,0.0174
3180.25,0.0173
3180.00,0.0173
3179.75,0.0172
3179.50,0.0173
3179.25,0.0173
3179.00,0.0173
3178.75,0.0173
3178.50,0.0173
3178.25,0.0172
3178.00,0.0172
3177.75,0.0172
3177.50,0.0172
3177.25,0.0173
3177.00,0.0173
3176.75,0.0173
3176.50,0.0173
3176.25,0.0173
3176.00,0.0173
3175.75,0.0173
3175.50,0.0173
3175.25,0.0173
3175.00,0.0173
3174.75,0.0173
3174.50,0.0174
3174.25,0.0174
3174.00,0.0174
3173.75,0.0174
3173.50,0.0174
3173.25,0.0174
3173.00,0.0173
3172.75,0.0173
3172.50,0.0173
3172.25,0.0173
3172.00,0.0172
3171.75,0.0172
3171.50,0.0172
3171.25,0.0172
3171.00,0.0173
3170.75,0.0173
3170.50,0.0173
3170.25,0.0173
3170.00,0.0173
3169.75,0.0173
3169.50,0.0173
3169.25,0.0173
3169.00,0.0174
3168.75,0.0174
3168.50,0.0174
3168.25,0.0174
3168.00,0.0174
3167.75,0.0173
3167.50,0.0173
3167.25,0.0173
3167.00,0.0173
3166.75,0.0173
3166.50,0.0173
3166.25,0.0173
3166.00,0.0173
3165.75,0.0173
3165.50,0.0173
3165.25,0.0173
3165.00,0.0174
3164.75,0.0174
3164.50,0.0174
3164.25,0.0174
3164.00,0.0174
3163.75,0.0174
3163.50,0.0173
3163.25,0.0173
3163.00,0.0173
3162.75,0.0173
3162.50,0.0173
3162.25,0.0173
3162.00,0.0173
3161.75,0.0173
3161.50,0.0174
3161.25,0.0174
3161.00,0.0174
3160.75,0.0173
3160.50,0.0173
3160.25,0.0173
3160.00,0.0173
3159.75,0.0173
3159.50,0.0174
3159.25,0.0174
3159.00,0.0174
3158.75,0.0174
3158.50,0.0173
3158.25,0.0173
3158.00,0.0173
3157.75,0.0174
3157.50,0.0174
3157.25,0.0175
3157.00,0.0175
3156.75,0.0175
3156.50,0.0174
3156.25,0.0174
3156.00,0.0174
3155.75,0.0174
3155.50,0.0174
3155.25,0.0174
3155.00,0.0174
3154.75,0.0174
3154.50,0.0174
3154.25,0.0174
3154.00,0.0173
3153.75,0.0173
3153.50,0.0174
3153.25,0.0173
3153.00,0.0173
3152.75,0.0173
3152.50,0.0173
3152.25,0.0174
3152.00,0.0174
3151.75,0.0175
3151.50,0.0175
3151.25,0.0175
3151.00,0.0174
3150.75,0.0174
3150.50,0.0174
3150.25,0.0174
3150.00,0.0174
3149.75,0.0175
3149.50,0.0175
3149.25,0.0175
3149.00,0.0175
3148.75,0.0175
3148.50,0.0175
3148.25,0.0174
3148.00,0.0174
3147.75,0.0174
3147.50,0.0174
3147.25,0.0175
3147.00,0.0175
3146.75,0.0175
3146.50,0.0175
3146.25,0.0175
3146.00,0.0175
3145.75,0.0175
3145.50,0.0174
3145.25,0.0174
3145.00,0.0174
3144.75,0.0174
3144.50,0.0174
3144.25,0.0174
3144.00,0.0174
3143.75,0.0174
3143.50,0.0175
3143.25,0.0175
3143.00,0.0175
3142.75,0.0175
3142.50,0.0175
3142.25,0.0174
3142.00,0.0174
3141.75,0.0174
3141.50,0.0174
3141.25,0.0174
3141.00,0.0174
3140.75,0.0175
3140.50,0.0175
3140.25,0.0175
3140.00,0.0176
3139.75,0.0176
3139.50,0.0176
3139.25,0.0175
3139.00,0.0175
3138.75,0.0175
3138.50,0.0175
3138.25,0.0175
3138.00,0.0175
3137.75,0.0174
3137.50,0.0174
3137.25,0.0174
3137.00,0.0174
3136.75,0.0174
3136.50,0.0175
3136.25,0.0175
3136.00,0.0175
3135.75,0.0176
3135.50,0.0176
3135.25,0.0175
3135.00,0.0175
3134.75,0.0175
3134.50,0.0174
3134.25,0.0174
3134.00,0.0174
3133.75,0.0175
3133.50,0.0175
3133.25,0.0175
3133.00,0.0176
3132.75,0.0176
3132.50,0.0177
3132.25,0.0177
3132.00,0.0177
3131.75,0.0177
3131.50,0.0177
3131.25,0.0176
3131.00,0.0175
3130.75,0.0174
3130.50,0.0174
3130.25,0.0175
3130.00,0.0175
3129.75,0.0175
3129.50,0.0176
3129.25,0.0176
3129.00,0.0176
3128.75,0.0176
3128.50,0.0175
3128.25,0.0175
3128.00,0.0175
3127.75,0.0175
3127.50,0.0175
3127.25,0.0176
3127.00,0.0176
3126.75,0.0176
3126.50,0.0177
3126.25,0.0177
3126.00,0.0177
3125.75,0.0177
3125.50,0.0177
3125.25,0.0177
3125.00,0.0176
3124.75,0.0176
3124.50,0.0176
3124.25,0.0175
3124.00,0.0175
3123.75,0.0175
3123.50,0.0175
3123.25,0.0175
3123.00,0.0175
3122.75,0.0175
3122.50,0.0176
3122.25,0.0176
3122.00,0.0176
3121.75,0.0176
3121.50,0.0176
3121.25,0.0176
3121.00,0.0175
3120.75,0.0175
3120.50,0.0175
3120.25,0.0175
3120.00,0.0176
3119.75,0.0177
3119.50,0.0177
3119.25,0.0177
3119.00,0.0178
3118.75,0.0178
3118.50,0.0178
3118.25,0.0178
3118.00,0.0178
3117.75,0.0177
3117.50,0.0176
3117.25,0.0176
3117.00,0.0175
3116.75,0.0175
3116.50,0.0176
3116.25,0.0176
3116.00,0.0176
3115.75,0.0176
3115.50,0.0176
3115.25,0.0177
3115.00,0.0177
3114.75,0.0177
3114.50,0.0177
3114.25,0.0177
3114.00,0.0178
3113.75,0.0178
3113.50,0.0178
3113.25,0.0178
3113.00,0.0178
3112.75,0.0177
3112.50,0.0177
3112.25,0.0177
3112.00,0.0177
3111.75,0.0176
3111.50,0.0176
3111.25,0.0176
3111.00,0.0176
3110.75,0.0176
3110.50,0.0177
3110.25,0.0177
3110.00,0.0177
3109.75,0.0177
3109.50,0.0177
3109.25,0.0177
3109.00,0.0177
3108.75,0.0176
3108.50,0.0176
3108.25,0.0176
3108.00,0.0176
3107.75,0.0177
3107.50,0.0177
3107.25,0.0178
3107.00,0.0178
3106.75,0.0178
3106.50,0.0178
3106.25,0.0178
3106.00,0.0178
3105.75,0.0177
3105.50,0.0177
3105.25,0.0177
3105.00,0.0177
3104.75,0.0177
3104.50,0.0177
3104.25,0.0177
3104.00,0.0177
3103.75,0.0176
3103.50,0.0176
3103.25,0.0176
3103.00,0.0176
3102.75,0.0176
3102.50,0.0176
3102.25,0.0176
3102.00,0.0176
3101.75,0.0177
3101.50,0.0177
3101.25,0.0178
3101.00,0.0178
3100.75,0.0178
3100.50,0.0178
3100.25,0.0178
3100.00,0.0177
3099.75,0.0177
3099.50,0.0177
3099.25,0.0177
3099.00,0.0177
3098.75,0.0178
3098.50,0.0178
3098.25,0.0178
3098.00,0.0177
3097.75,0.0177
3097.50,0.0177
3097.25,0.0177
3097.00,0.0177
3096.75,0.0176
3096.50,0.0176
3096.25,0.0177
3096.00,0.0177
3095.75,0.0177
3095.50,0.0177
3095.25,0.0177
3095.00,0.0177
3094.75,0.0177
3094.50,0.0177
3094.25,0.0177
3094.00,0.0177
3093.75,0.0177
3093.50,0.0177
3093.25,0.0177
3093.00,0.0177
3092.75,0.0177
3092.50,0.0178
3092.25,0.0178
3092.00,0.0178
3091.75,0.0177
3091.50,0.0177
3091.25,0.0176
3091.00,0.0177
3090.75,0.0177
3090.50,0.0177
3090.25,0.0177
3090.00,0.0177
3089.75,0.0177
3089.50,0.0177
3089.25,0.0177
3089.00,0.0177
3088.75,0.0178
3088.50,0.0178
3088.25,0.0177
3088.00,0.0177
3087.75,0.0177
3087.50,0.0177
3087.25,0.0178
3087.00,0.0178
3086.75,0.0177
3086.50,0.0177
3086.25,0.0177
3086.00,0.0177
3085.75,0.0177
3085.50,0.0176
3085.25,0.0176
3085.00,0.0176
3084.75,0.0176
3084.50,0.0176
3084.25,0.0176
3084.00,0.0177
3083.75,0.0177
3083.50,0.0178
3083.25,0.0178
3083.00,0.0177
3082.75,0.0177
3082.50,0.0177
3082.25,0.0176
3082.00,0.0176
3081.75,0.0177
3081.50,0.0177
3081.25,0.0177
3081.00,0.0177
3080.75,0.0177
3080.50,0.0177
3080.25,0.0177
3080.00,0.0177
3079.75,0.0177
3079.50,0.0178
3079.25,0.0178
3079.00,0.0177
3078.75,0.0177
3078.50,0.0177
3078.25,0.0178
3078.00,0.0178
3077.75,0.0179
3077.50,0.0179
3077.25,0.0179
3077.00,0.0179
3076.75,0.0179
3076.50,0.0178
3076.25,0.0178
3076.00,0.0178
3075.75,0.0178
3075.50,0.0177
3075.25,0.0177
3075.00,0.0177
3074.75,0.0177
3074.50,0.0177
3074.25,0.0177
3074.00,0.0178
3073.75,0.0178
3073.50,0.0178
3073.25,0.0178
3073.00,0.0178
3072.75,0.0178
3072.50,0.0178
3072.25,0.0178
3072.00,0.0179
3071.75,0.0179
3071.50,0.0179
3071.25,0.0179
3071.00,0.0179
3070.75,0.0179
3070.50,0.0179
3070.25,0.0179
3070.00,0.0179
3069.75,0.0179
3069.50,0.0179
3069.25,0.0179
3069.00,0.0179
3068.75,0.0178
3068.50,0.0178
3068.25,0.0178
3068.00,0.0178
3067.75,0.0178
3067.50,0.0178
3067.25,0.0178
3067.00,0.0177
3066.75,0.0177
3066.50,0.0177
3066.25,0.0177
3066.00,0.0177
3065.75,0.0177
3065.50,0.0178
3065.25,0.0179
3065.00,0.0179
3064.75,0.0179
3064.50,0.0180
3064.25,0.0180
3064.00,0.0180
3063.75,0.0180
3063.50,0.0179
3063.25,0.0179
3063.00,0.0178
3062.75,0.0178
3062.50,0.0178
3062.25,0.0178
3062.00,0.0178
3061.75,0.0179
3061.50,0.0179
3061.25,0.0180
3061.00,0.0180
3060.75,0.0180
3060.50,0.0181
3060.25,0.0181
3060.00,0.0181
3059.75,0.0182
3059.50,0.0182
3059.25,0.0182
3059.00,0.0181
3058.75,0.0181
3058.50,0.0181
3058.25,0.0181
3058.00,0.0181
3057.75,0.0181
3057.50,0.0181
3057.25,0.0181
3057.00,0.0181
3056.75,0.0181
3056.50,0.0181
3056.25,0.0181
3056.00,0.0182
3055.75,0.0182
3055.50,0.0182
3055.25,0.0182
3055.00,0.0182
3054.75,0.0181
3054.50,0.0181
3054.25,0.0180
3054.00,0.0180
3053.75,0.0180
3053.50,0.0181
3053.25,0.0182
3053.00,0.0182
3052.75,0.0183
3052.50,0.0183
3052.25,0.0183
3052.00,0.0182
3051.75,0.0182
3051.50,0.0182
3051.25,0.0181
3051.00,0.0181
3050.75,0.0181
3050.50,0.0181
3050.25,0.0181
3050.00,0.0181
3049.75,0.0182
3049.50,0.0182
3049.25,0.0182
3049.00,0.0182
3048.75,0.0182
3048.50,0.0182
3048.25,0.0181
3048.00,0.0180
3047.75,0.0180
3047.50,0.0180
3047.25,0.0180
3047.00,0.0180
3046.75,0.0180
3046.50,0.0180
3046.25,0.0181
3046.00,0.0180
3045.75,0.0180
3045.50,0.0180
3045.25,0.0179
3045.00,0.0179
3044.75,0.0180
3044.50,0.0180
3044.25,0.0180
3044.00,0.0180
3043.75,0.0179
3043.50,0.0179
3043.25,0.0178
3043.00,0.0178
3042.75,0.0178
3042.50,0.0179
3042.25,0.0179
3042.00,0.0179
3041.75,0.0179
3041.50,0.0179
3041.25,0.0179
3041.00,0.0179
3040.75,0.0179
3040.50,0.0179
3040.25,0.0179
3040.00,0.0179
3039.75,0.0179
3039.50,0.0179
3039.25,0.0179
3039.00,0.0179
3038.75,0.0178
3038.50,0.0178
3038.25,0.0178
3038.00,0.0179
3037.75,0.0179
3037.50,0.0180
3037.25,0.0180
3037.00,0.0180
3036.75,0.0180
3036.50,0.0179
3036.25,0.0179
3036.00,0.0178
3035.75,0.0178
3035.50,0.0178
3035.25,0.0179
3035.00,0.0179
3034.75,0.0179
3034.50,0.0179
3034.25,0.0179
3034.00,0.0178
3033.75,0.0178
3033.50,0.0178
3033.25,0.0178
3033.00,0.0177
3032.75,0.0177
3032.50,0.0177
3032.25,0.0177
3032.00,0.0177
3031.75,0.0178
3031.50,0.0179
3031.25,0.0179
3031.00,0.0179
3030.75,0.0179
3030.50,0.0179
3030.25,0.0179
3030.00,0.0179
3029.75,0.0178
3029.50,0.0178
3029.25,0.0178
3029.00,0.0178
3028.75,0.0178
3028.50,0.0179
3028.25,0.0179
3028.00,0.0179
3027.75,0.0179
3027.50,0.0178
3027.25,0.0178
3027.00,0.0178
3026.75,0.0178
3026.50,0.0178
3026.25,0.0179
3026.00,0.0179
3025.75,0.0179
3025.50,0.0179
3025.25,0.0179
3025.00,0.0179
3024.75,0.0179
3024.50,0.0179
3024.25,0.0180
3024.00,0.0180
3023.75,0.0179
3023.50,0.0179
3023.25,0.0178
3023.00,0.0179
3022.75,0.0179
3022.50,0.0179
3022.25,0.0180
3022.00,0.0180
3021.75,0.0180
3021.50,0.0180
3021.25,0.0180
3021.00,0.0180
3020.75,0.0180
3020.50,0.0181
3020.25,0.0181
3020.00,0.0181
3019.75,0.0181
3019.50,0.0181
3019.25,0.0181
3019.00,0.0181
3018.75,0.0181
3018.50,0.0181
3018.25,0.0181
3018.00,0.0182
3017.75,0.0182
3017.50,0.0181
3017.25,0.0181
3017.00,0.0181
3016.75,0.0180
3016.50,0.0180
3016.25,0.0180
3016.00,0.0181
3015.75,0.0181
3015.50,0.0182
3015.25,0.0182
3015.00,0.0182
3014.75,0.0182
3014.50,0.0182
3014.25,0.0182
3014.00,0.0183
3013.75,0.0183
3013.50,0.0183
3013.25,0.0183
3013.00,0.0183
3012.75,0.0183
3012.50,0.0182
3012.25,0.0182
3012.00,0.0181
3011.75,0.0181
3011.50,0.0181
3011.25,0.0181
3011.00,0.0182
3010.75,0.0182
3010.50,0.0182
3010.25,0.0182
3010.00,0.0182
3009.75,0.0182
3009.50,0.0181
3009.25,0.0181
3009.00,0.0181
3008.75,0.0181
3008.50,0.0180
3008.25,0.0180
3008.00,0.0180
3007.75,0.0180
3007.50,0.0180
3007.25,0.0181
3007.00,0.0182
3006.75,0.0183
3006.50,0.0184
3006.25,0.0184
3006.00,0.0184
3005.75,0.0183
3005.50,0.0183
3005.25,0.0183
3005.00,0.0183
3004.75,0.0183
3004.50,0.0183
3004.25,0.0183
3004.00,0.0183
3003.75,0.0183
3003.50,0.0184
3003.25,0.0184
3003.00,0.0184
3002.75,0.0184
3002.50,0.0184
3002.25,0.0184
3002.00,0.0184
3001.75,0.0184
3001.50,0.0184
3001.25,0.0184
3001.00,0.0184
3000.75,0.0184
3000.50,0.0184
3000.25,0.0184
3000.00,0.0184
2999.75,0.0184
2999.50,0.0185
2999.25,0.0185
2999.00,0.0185
2998.75,0.0186
2998.50,0.0186
2998.25,0.0186
2998.00,0.0186
2997.75,0.0185
2997.50,0.0185
2997.25,0.0185
2997.00,0.0185
2996.75,0.0185
2996.50,0.0186
2996.25,0.0187
2996.00,0.0187
2995.75,0.0188
2995.50,0.0188
2995.25,0.0188
2995.00,0.0189
2994.75,0.0189
2994.50,0.0189
2994.25,0.0190
2994.00,0.0189
2993.75,0.0189
2993.50,0.0189
2993.25,0.0190
2993.00,0.0191
2992.75,0.0192
2992.50,0.0192
2992.25,0.0192
2992.00,0.0192
2991.75,0.0192
2991.50,0.0193
2991.25,0.0193
2991.00,0.0194
2990.75,0.0194
2990.50,0.0194
2990.25,0.0195
2990.00,0.0195
2989.75,0.0195
2989.50,0.0196
2989.25,0.0196
2989.00,0.0197
2988.75,0.0198
2988.50,0.0198
2988.25,0.0198
2988.00,0.0198
2987.75,0.0199
2987.50,0.0200
2987.25,0.0201
2987.00,0.0201
2986.75,0.0202
2986.50,0.0202
2986.25,0.0203
2986.00,0.0203
2985.75,0.0204
2985.50,0.0205
2985.25,0.0205
2985.00,0.0206
2984.75,0.0207
2984.50,0.0208
2984.25,0.0209
2984.00,0.0210
2983.75,0.0211
2983.50,0.0212
2983.25,0.0213
2983.00,0.0214
2982.75,0.0215
2982.50,0.0216
2982.25,0.0217
2982.00,0.0219
2981.75,0.0220
2981.50,0.0221
2981.25,0.0223
2981.00,0.0224
2980.75,0.0226
2980.50,0.0227
2980.25,0.0228
2980.00,0.0229
2979.75,0.0230
2979.50,0.0231
2979.25,0.0233
2979.00,0.0235
2978.75,0.0237
2978.50,0.0239
2978.25,0.0241
2978.00,0.0243
2977.75,0.0245
2977.50,0.0247
2977.25,0.0250
2977.00,0.0252
2976.75,0.0255
2976.50,0.0258
2976.25,0.0261
2976.00,0.0263
2975.75,0.0267
2975.50,0.0270
2975.25,0.0273
2975.00,0.0276
2974.75,0.0280
2974.50,0.0283
2974.25,0.0287
2974.00,0.0290
2973.75,0.0294
2973.50,0.0298
2973.25,0.0302
2973.00,0.0307
2972.75,0.0311
2972.50,0.0316
2972.25,0.0321
2972.00,0.0325
2971.75,0.0330
2971.50,0.0336
2971.25,0.0341
2971.00,0.0347
2970.75,0.0353
2970.50,0.0359
2970.25,0.0365
2970.00,0.0371
2969.75,0.0377
2969.50,0.0383
2969.25,0.0389
2969.00,0.0395
2968.75,0.0402
2968.50,0.0409
2968.25,0.0416
2968.00,0.0424
2967.75,0.0431
2967.50,0.0438
2967.25,0.0446
2967.00,0.0453
2966.75,0.0459
2966.50,0.0466
2966.25,0.0472
2966.00,0.0478
2965.75,0.0484
2965.50,0.0490
2965.25,0.0497
2965.00,0.0502
2964.75,0.0508
2964.50,0.0514
2964.25,0.0519
2964.00,0.0524
2963.75,0.0529
2963.50,0.0532
2963.25,0.0535
2963.00,0.0538
2962.75,0.0540
2962.50,0.0542
2962.25,0.0543
2962.00,0.0544
2961.75,0.0544
2961.50,0.0543
2961.25,0.0541
2961.00,0.0539
2960.75,0.0536
2960.50,0.0533
2960.25,0.0530
2960.00,0.0526
2959.75,0.0522
2959.50,0.0517
2959.25,0.0512
2959.00,0.0506
2958.75,0.0500
2958.50,0.0494
2958.25,0.0488
2958.00,0.0481
2957.75,0.0474
2957.50,0.0467
2957.25,0.0460
2957.00,0.0452
2956.75,0.0445
2956.50,0.0438
2956.25,0.0431
2956.00,0.0424
2955.75,0.0417
2955.50,0.0410
2955.25,0.0403
2955.00,0.0396
2954.75,0.0390
2954.50,0.0383
2954.25,0.0377
2954.00,0.0371
2953.75,0.0366
2953.50,0.0360
2953.25,0.0355
2953.00,0.0350
2952.75,0.0345
2952.50,0.0340
2952.25,0.0335
2952.00,0.0330
2951.75,0.0325
2951.50,0.0320
2951.25,0.0316
2951.00,0.0312
2950.75,0.0308
2950.50,0.0305
2950.25,0.0302
2950.00,0.0298
2949.75,0.0295
2949.50,0.0292
2949.25,0.0289
2949.00,0.0286
2948.75,0.0283
2948.50,0.0280
2948.25,0.0277
2948.00,0.0274
2947.75,0.0271
2947.50,0.0269
2947.25,0.0266
2947.00,0.0265
2946.75,0.0263
2946.50,0.0261
2946.25,0.0260
2946.00,0.0258
2945.75,0.0256
2945.50,0.0254
2945.25,0.0252
2945.00,0.0250
2944.75,0.0248
2944.50,0.0246
2944.25,0.0245
2944.00,0.0243
2943.75,0.0241
2943.50,0.0240
2943.25,0.0238
2943.00,0.0237
2942.75,0.0236
2942.50,0.0235
2942.25,0.0235
2942.00,0.0233
2941.75,0.0232
2941.50,0.0231
2941.25,0.0229
2941.00,0.0228
2940.75,0.0227
2940.50,0.0226
2940.25,0.0225
2940.00,0.0224
2939.75,0.0223
2939.50,0.0223
2939.25,0.0222
2939.00,0.0221
2938.75,0.0221
2938.50,0.0221
2938.25,0.0220
2938.00,0.0220
2937.75,0.0219
2937.50,0.0217
2937.25,0.0216
2937.00,0.0215
2936.75,0.0214
2936.50,0.0214
2936.25,0.0213
2936.00,0.0213
2935.75,0.0213
2935.50,0.0212
2935.25,0.0212
2935.00,0.0212
2934.75,0.0212
2934.50,0.0211
2934.25,0.0211
2934.00,0.0210
2933.75,0.0210
2933.50,0.0209
2933.25,0.0209
2933.00,0.0209
2932.75,0.0208
2932.50,0.0208
2932.25,0.0207
2932.00,0.0206
2931.75,0.0206
2931.50,0.0205
2931.25,0.0205
2931.00,0.0205
2930.75,0.0204
2930.50,0.0204
2930.25,0.0204
2930.00,0.0204
2929.75,0.0203
2929.50,0.0203
2929.25,0.0202
2929.00,0.0202
2928.75,0.0201
2928.50,0.0201
2928.25,0.0201
2928.00,0.0200
2927.75,0.0200
2927.50,0.0200
2927.25,0.0200
2927.00,0.0200
2926.75,0.0201
2926.50,0.0201
2926.25,0.0201
2926.00,0.0201
2925.75,0.0201
2925.50,0.0200
2925.25,0.0200
2925.00,0.0200
2924.75,0.0199
2924.50,0.0199
2924.25,0.0198
2924.00,0.0198
2923.75,0.0199
2923.50,0.0199
2923.25,0.0199
2923.00,0.0200
2922.75,0.0200
2922.50,0.0200
2922.25,0.0199
2922.00,0.0199
2921.75,0.0198
2921.50,0.0199
2921.25,0.0199
2921.00,0.0199
2920.75,0.0199
2920.50,0.0199
2920.25,0.0199
2920.00,0.0199
2919.75,0.0199
2919.50,0.0200
2919.25,0.0200
2919.00,0.0200
2918.75,0.0200
2918.50,0.0200
2918.25,0.0200
2918.00,0.0200
2917.75,0.0201
2917.50,0.0201
2917.25,0.0201
2917.00,0.0201
2916.75,0.0201
2916.50,0.0201
2916.25,0.0202
2916.00,0.0203
2915.75,0.0204
2915.50,0.0205
2915.25,0.0206
2915.00,0.0207
2914.75,0.0207
2914.50,0.0207
2914.25,0.0207
2914.00,0.0207
2913.75,0.0207
2913.50,0.0208
2913.25,0.0209
2913.00,0.0210
2912.75,0.0211
2912.50,0.0211
2912.25,0.0211
2912.00,0.0211
2911.75,0.0211
2911.50,0.0212
2911.25,0.0213
2911.00,0.0214
2910.75,0.0216
2910.50,0.0217
2910.25,0.0217
2910.00,0.0217
2909.75,0.0218
2909.50,0.0218
2909.25,0.0218
2909.00,0.0219
2908.75,0.0220
2908.50,0.0221
2908.25,0.0221
2908.00,0.0222
2907.75,0.0224
2907.50,0.0224
2907.25,0.0225
2907.00,0.0226
2906.75,0.0226
2906.50,0.0227
2906.25,0.0227
2906.00,0.0228
2905.75,0.0228
2905.50,0.0229
2905.25,0.0230
2905.00,0.0230
2904.75,0.0231
2904.50,0.0231
2904.25,0.0230
2904.00,0.0230
2903.75,0.0229
2903.50,0.0229
2903.25,0.0229
2903.00,0.0229
2902.75,0.0229
2902.50,0.0228
2902.25,0.0228
2902.00,0.0228
2901.75,0.0227
2901.50,0.0226
2901.25,0.0226
2901.00,0.0226
2900.75,0.0225
2900.50,0.0225
2900.25,0.0225
2900.00,0.0225
2899.75,0.0224
2899.50,0.0223
2899.25,0.0222
2899.00,0.0221
2898.75,0.0220
2898.50,0.0219
2898.25,0.0219
2898.00,0.0219
2897.75,0.0218
2897.50,0.0218
2897.25,0.0217
2897.00,0.0216
2896.75,0.0216
2896.50,0.0215
2896.25,0.0214
2896.00,0.0213
2895.75,0.0212
2895.50,0.0211
2895.25,0.0211
2895.00,0.0210
2894.75,0.0210
2894.50,0.0209
2894.25,0.0209
2894.00,0.0209
2893.75,0.0209
2893.50,0.0208
2893.25,0.0208
2893.00,0.0207
2892.75,0.0206
2892.50,0.0205
2892.25,0.0204
2892.00,0.0204
2891.75,0.0204
2891.50,0.0203
2891.25,0.0203
2891.00,0.0203
2890.75,0.0203
2890.50,0.0202
2890.25,0.0202
2890.00,0.0201
2889.75,0.0201
2889.50,0.0200
2889.25,0.0200
2889.00,0.0200
2888.75,0.0199
2888.50,0.0199
2888.25,0.0198
2888.00,0.0198
2887.75,0.0198
2887.50,0.0198
2887.25,0.0198
2887.00,0.0198
2886.75,0.0197
2886.50,0.0196
2886.25,0.0196
2886.00,0.0195
2885.75,0.0195
2885.50,0.0196
2885.25,0.0196
2885.00,0.0196
2884.75,0.0196
2884.50,0.0195
2884.25,0.0195
2884.00,0.0195
2883.75,0.0194
2883.50,0.0194
2883.25,0.0194
2883.00,0.0194
2882.75,0.0194
2882.50,0.0195
2882.25,0.0194
2882.00,0.0194
2881.75,0.0193
2881.50,0.0193
2881.25,0.0192
2881.00,0.0192
2880.75,0.0192
2880.50,0.0192
2880.25,0.0192
2880.00,0.0192
2879.75,0.0192
2879.50,0.0192
2879.25,0.0191
2879.00,0.0191
2878.75,0.0191
2878.50,0.0190
2878.25,0.0190
2878.00,0.0190
2877.75,0.0189
2877.50,0.0189
2877.25,0.0190
2877.00,0.0190
2876.75,0.0190
2876.50,0.0191
2876.25,0.0191
2876.00,0.0191
2875.75,0.0191
2875.50,0.0191
2875.25,0.0191
2875.00,0.0191
2874.75,0.0190
2874.50,0.0190
2874.25,0.0190
2874.00,0.0190
2873.75,0.0190
2873.50,0.0190
2873.25,0.0190
2873.00,0.0190
2872.75,0.0190
2872.50,0.0189
2872.25,0.0189
2872.00,0.0189
2871.75,0.0189
2871.50,0.0188
2871.25,0.0188
2871.00,0.0187
2870.75,0.0187
2870.50,0.0187
2870.25,0.0187
2870.00,0.0187
2869.75,0.0187
2869.50,0.0187
2869.25,0.0187
2869.00,0.0188
2868.75,0.0188
2868.50,0.0187
2868.25,0.0187
2868.00,0.0187
2867.75,0.0188
2867.50,0.0188
2867.25,0.0188
2867.00,0.0189
2866.75,0.0188
2866.50,0.0188
2866.25,0.0187
2866.00,0.0187
2865.75,0.0186
2865.50,0.0186
2865.25,0.0186
2865.00,0.0186
2864.75,0.0186
2864.50,0.0186
2864.25,0.0186
2864.00,0.0186
2863.75,0.0186
2863.50,0.0186
2863.25,0.0186
2863.00,0.0186
2862.75,0.0187
2862.50,0.0186
2862.25,0.0186
2862.00,0.0186
2861.75,0.0186
2861.50,0.0186
2861.25,0.0186
2861.00,0.0185
2860.75,0.0185
2860.50,0.0185
2860.25,0.0184
2860.00,0.0184
2859.75,0.0184
2859.50,0.0184
2859.25,0.0184
2859.00,0.0184
2858.75,0.0184
2858.50,0.0184
2858.25,0.0184
2858.00,0.0184
2857.75,0.0184
2857.50,0.0184
2857.25,0.0184
2857.00,0.0184
2856.75,0.0184
2856.50,0.0184
2856.25,0.0183
2856.00,0.0183
2855.75,0.0183
2855.50,0.0184
2855.25,0.0184
2855.00,0.0184
2854.75,0.0183
2854.50,0.0183
2854.25,0.0182
2854.00,0.0182
2853.75,0.0183
2853.50,0.0183
2853.25,0.0184
2853.00,0.0184
2852.75,0.0183
2852.50,0.0183
2852.25,0.0182
2852.00,0.0182
2851.75,0.0182
2851.50,0.0182
2851.25,0.0183
2851.00,0.0183
2850.75,0.0183
2850.50,0.0184
2850.25,0.0184
2850.00,0.0185
2849.75,0.0185
2849.50,0.0184
2849.25,0.0184
2849.00,0.0183
2848.75,0.0183
2848.50,0.0183
2848.25,0.0183
2848.00,0.0184
2847.75,0.0184
2847.50,0.0184
2847.25,0.0185
2847.00,0.0185
2846.75,0.0185
2846.50,0.0185
2846.25,0.0184
2846.00,0.0184
2845.75,0.0184
2845.50,0.0184
2845.25,0.0184
2845.00,0.0184
2844.75,0.0184
2844.50,0.0184
2844.25,0.0184
2844.00,0.0184
2843.75,0.0184
2843.50,0.0185
2843.25,0.0185
2843.00,0.0184
2842.75,0.0184
2842.50,0.0184
2842.25,0.0184
2842.00,0.0184
2841.75,0.0184
2841.50,0.0184
2841.25,0.0184
2841.00,0.0185
2840.75,0.0185
2840.50,0.0186
2840.25,0.0186
2840.00,0.0186
2839.75,0.0186
2839.50,0.0185
2839.25,0.0185
2839.00,0.0185
2838.75,0.0184
2838.50,0.0185
2838.25,0.0185
2838.00,0.0185
2837.75,0.0185
2837.50,0.0185
2837.25,0.0185
2837.00,0.0184
2836.75,0.0184
2836.50,0.0184
2836.25,0.0184
2836.00,0.0184
2835.75,0.0185
2835.50,0.0185
2835.25,0.0186
2835.00,0.0185
2834.75,0.0185
2834.50,0.0184
2834.25,0.0184
2834.00,0.0184
2833.75,0.0184
2833.50,0.0184
2833.25,0.0184
2833.00,0.0184
2832.75,0.0183
2832.50,0.0183
2832.25,0.0183
2832.00,0.0183
2831.75,0.0183
2831.50,0.0184
2831.25,0.0184
2831.00,0.0184
2830.75,0.0184
2830.50,0.0184
2830.25,0.0184
2830.00,0.0184
2829.75,0.0184
2829.50,0.0184
2829.25,0.0184
2829.00,0.0184
2828.75,0.0184
2828.50,0.0183
2828.25,0.0183
2828.00,0.0183
2827.75,0.0183
2827.50,0.0183
2827.25,0.0183
2827.00,0.0183
2826.75,0.0183
2826.50,0.0183
2826.25,0.0184
2826.00,0.0184
2825.75,0.0184
2825.50,0.0184
2825.25,0.0184
2825.00,0.0185
2824.75,0.0185
2824.50,0.0185
2824.25,0.0185
2824.00,0.0185
2823.75,0.0184
2823.50,0.0184
2823.25,0.0184
2823.00,0.0184
2822.75,0.0184
2822.50,0.0184
2822.25,0.0184
2822.00,0.0184
2821.75,0.0184
2821.50,0.0184
2821.25,0.0184
2821.00,0.0184
2820.75,0.0184
2820.50,0.0184
2820.25,0.0184
2820.00,0.0184
2819.75,0.0184
2819.50,0.0184
2819.25,0.0184
2819.00,0.0184
2818.75,0.0184
2818.50,0.0184
2818.25,0.0184
2818.00,0.0184
2817.75,0.0184
2817.50,0.0185
2817.25,0.0185
2817.00,0.0185
2816.75,0.0185
2816.50,0.0185
2816.25,0.0184
2816.00,0.0184
2815.75,0.0184
2815.50,0.0183
2815.25,0.0184
2815.00,0.0184
2814.75,0.0184
2814.50,0.0185
2814.25,0.0185
2814.00,0.0184
2813.75,0.0184
2813.50,0.0184
2813.25,0.0184
2813.00,0.0184
2812.75,0.0184
2812.50,0.0184
2812.25,0.0184
2812.00,0.0184
2811.75,0.0184
2811.50,0.0184
2811.25,0.0185
2811.00,0.0185
2810.75,0.0185
2810.50,0.0185
2810.25,0.0185
2810.00,0.0185
2809.75,0.0185
2809.50,0.0185
2809.25,0.0185
2809.00,0.0185
2808.75,0.0185
2808.50,0.0185
2808.25,0.0185
2808.00,0.0185
2807.75,0.0185
2807.50,0.0185
2807.25,0.0185
2807.00,0.0185
2806.75,0.0185
2806.50,0.0185
2806.25,0.0185
2806.00,0.0186
2805.75,0.0186
2805.50,0.0185
2805.25,0.0185
2805.00,0.0185
2804.75,0.0184
2804.50,0.0184
2804.25,0.0184
2804.00,0.0184
2803.75,0.0184
2803.50,0.0184
2803.25,0.0184
2803.00,0.0184
2802.75,0.0185
2802.50,0.0185
2802.25,0.0184
2802.00,0.0184
2801.75,0.0184
2801.50,0.0184
2801.25,0.0184
2801.00,0.0184
2800.75,0.0184
2800.50,0.0184
2800.25,0.0184
2800.00,0.0184
2799.75,0.0184
2799.50,0.0184
2799.25,0.0183
2799.00,0.0183
2798.75,0.0183
2798.50,0.0184
2798.25,0.0184
2798.00,0.0185
2797.75,0.0185
2797.50,0.0184
2797.25,0.0184
2797.00,0.0184
2796.75,0.0184
2796.50,0.0184
2796.25,0.0183
2796.00,0.0183
2795.75,0.0183
2795.50,0.0183
2795.25,0.0183
2795.00,0.0183
2794.75,0.0183
2794.50,0.0183
2794.25,0.0184
2794.00,0.0184
2793.75,0.0184
2793.50,0.0184
2793.25,0.0184
2793.00,0.0183
2792.75,0.0183
2792.50,0.0183
2792.25,0.0183
2792.00,0.0183
2791.75,0.0183
2791.50,0.0183
2791.25,0.0183
2791.00,0.0183
2790.75,0.0183
2790.50,0.0184
2790.25,0.0184
2790.00,0.0184
2789.75,0.0184
2789.50,0.0183
2789.25,0.0183
2789.00,0.0183
2788.75,0.0183
2788.50,0.0183
2788.25,0.0182
2788.00,0.0183
2787.75,0.0183
2787.50,0.0183
2787.25,0.0183
2787.00,0.0183
2786.75,0.0183
2786.50,0.0183
2786.25,0.0182
2786.00,0.0182
2785.75,0.0182
2785.50,0.0182
2785.25,0.0182
2785.00,0.0182
2784.75,0.0183
2784.50,0.0182
2784.25,0.0182
2784.00,0.0182
2783.75,0.0181
2783.50,0.0182
2783.25,0.0182
2783.00,0.0182
2782.75,0.0182
2782.50,0.0182
2782.25,0.0182
2782.00,0.0182
2781.75,0.0182
2781.50,0.0181
2781.25,0.0181
2781.00,0.0181
2780.75,0.0181
2780.50,0.0181
2780.25,0.0180
2780.00,0.0180
2779.75,0.0180
2779.50,0.0179
2779.25,0.0179
2779.00,0.0180
2778.75,0.0180
2778.50,0.0180
2778.25,0.0180
2778.00,0.0180
2777.75,0.0179
2777.50,0.0179
2777.25,0.0179
2777.00,0.0179
2776.75,0.0179
2776.50,0.0179
2776.25,0.0179
2776.00,0.0179
2775.75,0.0179
2775.50,0.0179
2775.25,0.0179
2775.00,0.0179
2774.75,0.0180
2774.50,0.0180
2774.25,0.0179
2774.00,0.0179
2773.75,0.0179
2773.50,0.0178
2773.25,0.0178
2773.00,0.0178
2772.75,0.0178
2772.50,0.0178
2772.25,0.0178
2772.00,0.0179
2771.75,0.0179
2771.50,0.0179
2771.25,0.0179
2771.00,0.0179
2770.75,0.0179
2770.50,0.0179
2770.25,0.0179
2770.00,0.0178
2769.75,0.0178
2769.50,0.0178
2769.25,0.0178
2769.00,0.0178
2768.75,0.0178
2768.50,0.0179
2768.25,0.0179
2768.00,0.0178
2767.75,0.0178
2767.50,0.0178
2767.25,0.0177
2767.00,0.0177
2766.75,0.0177
2766.50,0.0177
2766.25,0.0177
2766.00,0.0177
2765.75,0.0177
2765.50,0.0177
2765.25,0.0177
2765.00,0.0178
2764.75,0.0178
2764.50,0.0178
2764.25,0.0178
2764.00,0.0178
2763.75,0.0178
2763.50,0.0177
2763.25,0.0177
2763.00,0.0177
2762.75,0.0178
2762.50,0.0178
2762.25,0.0178
2762.00,0.0178
2761.75,0.0178
2761.50,0.0178
2761.25,0.0177
2761.00,0.0177
2760.75,0.0177
2760.50,0.0177
2760.25,0.0176
2760.00,0.0177
2759.75,0.0177
2759.50,0.0177
2759.25,0.0177
2759.00,0.0177
2758.75,0.0177
2758.50,0.0177
2758.25,0.0177
2758.00,0.0177
2757.75,0.0177
2757.50,0.0177
2757.25,0.0177
2757.00,0.0177
2756.75,0.0177
2756.50,0.0176
2756.25,0.0176
2756.00,0.0176
2755.75,0.0176
2755.50,0.0177
2755.25,0.0177
2755.00,0.0178
2754.75,0.0178
2754.50,0.0177
2754.25,0.0177
2754.00,0.0176
2753.75,0.0176
2753.50,0.0177
2753.25,0.0177
2753.00,0.0177
2752.75,0.0177
2752.50,0.0177
2752.25,0.0177
2752.00,0.0177
2751.75,0.0177
2751.50,0.0177
2751.25,0.0177
2751.00,0.0177
2750.75,0.0177
2750.50,0.0177
2750.25,0.0177
2750.00,0.0177
2749.75,0.0177
2749.50,0.0177
2749.25,0.0177
2749.00,0.0177
2748.75,0.0177
2748.50,0.0177
2748.25,0.0176
2748.00,0.0176
2747.75,0.0176
2747.50,0.0176
2747.25,0.0176
2747.00,0.0177
2746.75,0.0178
2746.50,0.0179
2746.25,0.0179
2746.00,0.0178
2745.75,0.0178
2745.50,0.0177
2745.25,0.0177
2745.00,0.0177
2744.75,0.0176
2744.50,0.0176
2744.25,0.0176
2744.00,0.0176
2743.75,0.0176
2743.50,0.0177
2743.25,0.0177
2743.00,0.0177
2742.75,0.0176
2742.50,0.0176
2742.25,0.0176
2742.00,0.0176
2741.75,0.0177
2741.50,0.0177
2741.25,0.0177
2741.00,0.0177
2740.75,0.0177
2740.50,0.0177
2740.25,0.0176
2740.00,0.0176
2739.75,0.0176
2739.50,0.0175
2739.25,0.0176
2739.00,0.0176
2738.75,0.0176
2738.50,0.0176
2738.25,0.0176
2738.00,0.0177
2737.75,0.0177
2737.50,0.0177
2737.25,0.0177
2737.00,0.0176
2736.75,0.0176
2736.50,0.0176
2736.25,0.0175
2736.00,0.0175
2735.75,0.0175
2735.50,0.0176
2735.25,0.0176
2735.00,0.0176
2734.75,0.0176
2734.50,0.0176
2734.25,0.0176
2734.00,0.0176
2733.75,0.0176
2733.50,0.0176
2733.25,0.0176
2733.00,0.0176
2732.75,0.0175
2732.50,0.0175
2732.25,0.0175
2732.00,0.0175
2731.75,0.0175
2731.50,0.0175
2731.25,0.0175
2731.00,0.0176
2730.75,0.0176
2730.50,0.0177
2730.25,0.0177
2730.00,0.0177
2729.75,0.0176
2729.50,0.0176
2729.25,0.0176
2729.00,0.0176
2728.75,0.0177
2728.50,0.0177
2728.25,0.0177
2728.00,0.0177
2727.75,0.0177
2727.50,0.0176
2727.25,0.0175
2727.00,0.0175
2726.75,0.0175
2726.50,0.0175
2726.25,0.0175
2726.00,0.0176
2725.75,0.0176
2725.50,0.0176
2725.25,0.0176
2725.00,0.0176
2724.75,0.0176
2724.50,0.0176
2724.25,0.0176
2724.00,0.0176
2723.75,0.0176
2723.50,0.0176
2723.25,0.0176
2723.00,0.0176
2722.75,0.0176
2722.50,0.0176
2722.25,0.0176
2722.00,0.0176
2721.75,0.0176
2721.50,0.0176
2721.25,0.0175
2721.00,0.0175
2720.75,0.0175
2720.50,0.0176
2720.25,0.0176
2720.00,0.0177
2719.75,0.0177
2719.50,0.0176
2719.25,0.0176
2719.00,0.0176
2718.75,0.0176
2718.50,0.0176
2718.25,0.0176
2718.00,0.0176
2717.75,0.0175
2717.50,0.0175
2717.25,0.0176
2717.00,0.0176
2716.75,0.0176
2716.50,0.0176
2716.25,0.0176
2716.00,0.0176
2715.75,0.0176
2715.50,0.0176
2715.25,0.0175
2715.00,0.0175
2714.75,0.0176
2714.50,0.0176
2714.25,0.0177
2714.00,0.0177
2713.75,0.0176
2713.50,0.0176
2713.25,0.0175
2713.00,0.0175
2712.75,0.0175
2712.50,0.0176
2712.25,0.0176
2712.00,0.0176
2711.75,0.0176
2711.50,0.0177
2711.25,0.0177
2711.00,0.0178
2710.75,0.0178
2710.50,0.0178
2710.25,0.0178
2710.00,0.0177
2709.75,0.0177
2709.50,0.0176
2709.25,0.0176
2709.00,0.0176
2708.75,0.0176
2708.50,0.0176
2708.25,0.0176
2708.00,0.0176
2707.75,0.0176
2707.50,0.0176
2707.25,0.0176
2707.00,0.0176
2706.75,0.0176
2706.50,0.0176
2706.25,0.0176
2706.00,0.0176
2705.75,0.0176
2705.50,0.0175
2705.25,0.0175
2705.00,0.0175
2704.75,0.0175
2704.50,0.0175
2704.25,0.0175
2704.00,0.0176
2703.75,0.0176
2703.50,0.0177
2703.25,0.0177
2703.00,0.0176
2702.75,0.0176
2702.50,0.0175
2702.25,0.0175
2702.00,0.0175
2701.75,0.0176
2701.50,0.0176
2701.25,0.0176
2701.00,0.0176
2700.75,0.0176
2700.50,0.0176
2700.25,0.0176
2700.00,0.0176
2699.75,0.0175
2699.50,0.0175
2699.25,0.0176
2699.00,0.0176
2698.75,0.0176
2698.50,0.0177
2698.25,0.0177
2698.00,0.0177
2697.75,0.0177
2697.50,0.0176
2697.25,0.0176
2697.00,0.0176
2696.75,0.0176
2696.50,0.0176
2696.25,0.0176
2696.00,0.0176
2695.75,0.0176
2695.50,0.0176
2695.25,0.0176
2695.00,0.0176
2694.75,0.0176
2694.50,0.0175
2694.25,0.0175
2694.00,0.0174
2693.75,0.0174
2693.50,0.0174
2693.25,0.0174
2693.00,0.0174
2692.75,0.0175
2692.50,0.0175
2692.25,0.0175
2692.00,0.0175
2691.75,0.0175
2691.50,0.0175
2691.25,0.0175
2691.00,0.0174
2690.75,0.0174
2690.50,0.0174
2690.25,0.0175
2690.00,0.0175
2689.75,0.0175
2689.50,0.0175
2689.25,0.0175
2689.00,0.0175
2688.75,0.0176
2688.50,0.0176
2688.25,0.0175
2688.00,0.0175
2687.75,0.0175
2687.50,0.0174
2687.25,0.0174
2687.00,0.0174
2686.75,0.0175
2686.50,0.0175
2686.25,0.0175
2686.00,0.0175
2685.75,0.0175
2685.50,0.0175
2685.25,0.0175
2685.00,0.0175
2684.75,0.0176
2684.50,0.0176
2684.25,0.0177
2684.00,0.0176
2683.75,0.0176
2683.50,0.0175
2683.25,0.0175
2683.00,0.0175
2682.75,0.0175
2682.50,0.0175
2682.25,0.0175
2682.00,0.0175
2681.75,0.0175
2681.50,0.0174
2681.25,0.0174
2681.00,0.0174
2680.75,0.0175
2680.50,0.0175
2680.25,0.0176
2680.00,0.0176
2679.75,0.0176
2679.50,0.0175
2679.25,0.0175
2679.00,0.0175
2678.75,0.0175
2678.50,0.0175
2678.25,0.0175
2678.00,0.0175
2677.75,0.0176
2677.50,0.0176
2677.25,0.0176
2677.00,0.0176
2676.75,0.0176
2676.50,0.0175
2676.25,0.0175
2676.00,0.0175
2675.75,0.0175
2675.50,0.0175
2675.25,0.0176
2675.00,0.0176
2674.75,0.0176
2674.50,0.0176
2674.25,0.0176
2674.00,0.0176
2673.75,0.0176
2673.50,0.0176
2673.25,0.0176
2673.00,0.0176
2672.75,0.0176
2672.50,0.0176
2672.25,0.0176
2672.00,0.0175
2671.75,0.0175
2671.50,0.0175
2671.25,0.0175
2671.00,0.0175
2670.75,0.0176
2670.50,0.0176
2670.25,0.0176
2670.00,0.0177
2669.75,0.0177
2669.50,0.0177
2669.25,0.0177
2669.00,0.0177
2668.75,0.0177
2668.50,0.0177
2668.25,0.0176
2668.00,0.0176
2667.75,0.0176
2667.50,0.0176
2667.25,0.0175
2667.00,0.0176
2666.75,0.0176
2666.50,0.0176
2666.25,0.0177
2666.00,0.0177
2665.75,0.0177
2665.50,0.0177
2665.25,0.0177
2665.00,0.0177
2664.75,0.0177
2664.50,0.0176
2664.25,0.0176
2664.00,0.0176
2663.75,0.0176
2663.50,0.0176
2663.25,0.0176
2663.00,0.0176
2662.75,0.0176
2662.50,0.0176
2662.25,0.0176
2662.00,0.0176
2661.75,0.0176
2661.50,0.0176
2661.25,0.0176
2661.00,0.0177
2660.75,0.0177
2660.50,0.0177
2660.25,0.0177
2660.00,0.0176
2659.75,0.0176
2659.50,0.0176
2659.25,0.0176
2659.00,0.0176
2658.75,0.0176
2658.50,0.0175
2658.25,0.0175
2658.00,0.0176
2657.75,0.0176
2657.50,0.0176
2657.25,0.0177
2657.00,0.0176
2656.75,0.0176
2656.50,0.0176
2656.25,0.0175
2656.00,0.0175
2655.75,0.0174
2655.50,0.0174
2655.25,0.0174
2655.00,0.0174
2654.75,0.0174
2654.50,0.0175
2654.25,0.0175
2654.00,0.0175
2653.75,0.0174
2653.50,0.0174
2653.25,0.0174
2653.00,0.0173
2652.75,0.0173
2652.50,0.0173
2652.25,0.0174
2652.00,0.0174
2651.75,0.0174
2651.50,0.0173
2651.25,0.0173
2651.00,0.0173
2650.75,0.0173
2650.50,0.0174
2650.25,0.0174
2650.00,0.0174
2649.75,0.0174
2649.50,0.0174
2649.25,0.0174
2649.00,0.0174
2648.75,0.0173
2648.50,0.0173
2648.25,0.0173
2648.00,0.0173
2647.75,0.0173
2647.50,0.0173
2647.25,0.0173
2647.00,0.0173
2646.75,0.0174
2646.50,0.0174
2646.25,0.0173
2646.00,0.0173
2645.75,0.0172
2645.50,0.0172
2645.25,0.0172
2645.00,0.0172
2644.75,0.0172
2644.50,0.0172
2644.25,0.0172
2644.00,0.0172
2643.75,0.0172
2643.50,0.0172
2643.25,0.0171
2643.00,0.0171
2642.75,0.0171
2642.50,0.0171
2642.25,0.0171
2642.00,0.0170
2641.75,0.0170
2641.50,0.0171
2641.25,0.0170
2641.00,0.0170
2640.75,0.0170
2640.50,0.0169
2640.25,0.0169
2640.00,0.0169
2639.75,0.0170
2639.50,0.0171
2639.25,0.0171
2639.00,0.0171
2638.75,0.0171
2638.50,0.0170
2638.25,0.0171
2638.00,0.0171
2637.75,0.0171
2637.50,0.0171
2637.25,0.0171
2637.00,0.0171
2636.75,0.0170
2636.50,0.0169
2636.25,0.0169
2636.00,0.0169
2635.75,0.0169
2635.50,0.0169
2635.25,0.0169
2635.00,0.0169
2634.75,0.0169
2634.50,0.0169
2634.25,0.0168
2634.00,0.0168
2633.75,0.0168
2633.50,0.0168
2633.25,0.0168
2633.00,0.0168
2632.75,0.0168
2632.50,0.0167
2632.25,0.0167
2632.00,0.0167
2631.75,0.0167
2631.50,0.0167
2631.25,0.0167
2631.00,0.0167
2630.75,0.0166
2630.50,0.0166
2630.25,0.0166
2630.00,0.0165
2629.75,0.0166
2629.50,0.0166
2629.25,0.0167
2629.00,0.0168
2628.75,0.0168
2628.50,0.0168
2628.25,0.0168
2628.00,0.0167
2627.75,0.0167
2627.50,0.0167
2627.25,0.0166
2627.00,0.0166
2626.75,0.0166
2626.50,0.0166
2626.25,0.0166
2626.00,0.0165
2625.75,0.0165
2625.50,0.0165
2625.25,0.0165
2625.00,0.0164
2624.75,0.0164
2624.50,0.0165
2624.25,0.0165
2624.00,0.0166
2623.75,0.0166
2623.50,0.0166
2623.25,0.0166
2623.00,0.0166
2622.75,0.0166
2622.50,0.0166
2622.25,0.0165
2622.00,0.0165
2621.75,0.0165
2621.50,0.0165
2621.25,0.0165
2621.00,0.0165
2620.75,0.0165
2620.50,0.0165
2620.25,0.0165
2620.00,0.0165
2619.75,0.0165
2619.50,0.0165
2619.25,0.0165
2619.00,0.0165
2618.75,0.0164
2618.50,0.0164
2618.25,0.0163
2618.00,0.0163
2617.75,0.0163
2617.50,0.0164
2617.25,0.0164
2617.00,0.0164
2616.75,0.0164
2616.50,0.0164
2616.25,0.0163
2616.00,0.0162
2615.75,0.0162
2615.50,0.0162
2615.25,0.0162
2615.00,0.0162
2614.75,0.0162
2614.50,0.0162
2614.25,0.0162
2614.00,0.0162
2613.75,0.0162
2613.50,0.0162
2613.25,0.0162
2613.00,0.0162
2612.75,0.0162
2612.50,0.0162
2612.25,0.0163
2612.00,0.0163
2611.75,0.0163
2611.50,0.0163
2611.25,0.0164
2611.00,0.0164
2610.75,0.0164
2610.50,0.0163
2610.25,0.0163
2610.00,0.0162
2609.75,0.0162
2609.50,0.0162
2609.25,0.0161
2609.00,0.0161
2608.75,0.0161
2608.50,0.0161
2608.25,0.0161
2608.00,0.0161
2607.75,0.0161
2607.50,0.0161
2607.25,0.0160
2607.00,0.0160
2606.75,0.0160
2606.50,0.0160
2606.25,0.0161
2606.00,0.0162
2605.75,0.0162
2605.50,0.0162
2605.25,0.0161
2605.00,0.0160
2604.75,0.0160
2604.50,0.0159
2604.25,0.0160
2604.00,0.0160
2603.75,0.0160
2603.50,0.0159
2603.25,0.0159
2603.00,0.0158
2602.75,0.0158
2602.50,0.0158
2602.25,0.0158
2602.00,0.0158
2601.75,0.0158
2601.50,0.0158
2601.25,0.0158
2601.00,0.0159
2600.75,0.0159
2600.50,0.0159
2600.25,0.0159
2600.00,0.0159
2599.75,0.0159
2599.50,0.0159
2599.25,0.0160
2599.00,0.0160
2598.75,0.0160
2598.50,0.0160
2598.25,0.0160
2598.00,0.0160
2597.75,0.0159
2597.50,0.0159
2597.25,0.0158
2597.00,0.0158
2596.75,0.0158
2596.50,0.0158
2596.25,0.0158
2596.00,0.0158
2595.75,0.0159
2595.50,0.0159
2595.25,0.0159
2595.00,0.0159
2594.75,0.0159
2594.50,0.0159
2594.25,0.0160
2594.00,0.0160
2593.75,0.0160
2593.50,0.0160
2593.25,0.0160
2593.00,0.0160
2592.75,0.0159
2592.50,0.0159
2592.25,0.0158
2592.00,0.0157
2591.75,0.0157
2591.50,0.0157
2591.25,0.0157
2591.00,0.0156
2590.75,0.0156
2590.50,0.0156
2590.25,0.0156
2590.00,0.0157
2589.75,0.0157
2589.50,0.0157
2589.25,0.0157
2589.00,0.0157
2588.75,0.0157
2588.50,0.0157
2588.25,0.0157
2588.00,0.0157
2587.75,0.0156
2587.50,0.0156
2587.25,0.0155
2587.00,0.0155
2586.75,0.0155
2586.50,0.0155
2586.25,0.0155
2586.00,0.0156
2585.75,0.0156
2585.50,0.0157
2585.25,0.0157
2585.00,0.0157
2584.75,0.0157
2584.50,0.0157
2584.25,0.0157
2584.00,0.0156
2583.75,0.0156
2583.50,0.0155
2583.25,0.0155
2583.00,0.0154
2582.75,0.0154
2582.50,0.0154
2582.25,0.0155
2582.00,0.0155
2581.75,0.0156
2581.50,0.0156
2581.25,0.0156
2581.00,0.0157
2580.75,0.0156
2580.50,0.0156
2580.25,0.0156
2580.00,0.0155
2579.75,0.0155
2579.50,0.0155
2579.25,0.0155
2579.00,0.0156
2578.75,0.0156
2578.50,0.0156
2578.25,0.0156
2578.00,0.0155
2577.75,0.0155
2577.50,0.0155
2577.25,0.0155
2577.00,0.0154
2576.75,0.0154
2576.50,0.0154
2576.25,0.0154
2576.00,0.0154
2575.75,0.0154
2575.50,0.0155
2575.25,0.0155
2575.00,0.0155
2574.75,0.0155
2574.50,0.0156
2574.25,0.0156
2574.00,0.0157
2573.75,0.0157
2573.50,0.0155
2573.25,0.0154
2573.00,0.0153
2572.75,0.0152
2572.50,0.0153
2572.25,0.0153
2572.00,0.0154
2571.75,0.0154
2571.50,0.0154
2571.25,0.0153
2571.00,0.0153
2570.75,0.0153
2570.50,0.0154
2570.25,0.0154
2570.00,0.0154
2569.75,0.0154
2569.50,0.0154
2569.25,0.0154
2569.00,0.0154
2568.75,0.0154
2568.50,0.0154
2568.25,0.0155
2568.00,0.0155
2567.75,0.0155
2567.50,0.0155
2567.25,0.0155
2567.00,0.0155
2566.75,0.0154
2566.50,0.0153
2566.25,0.0152
2566.00,0.0152
2565.75,0.0152
2565.50,0.0152
2565.25,0.0153
2565.00,0.0154
2564.75,0.0155
2564.50,0.0155
2564.25,0.0154
2564.00,0.0153
2563.75,0.0152
2563.50,0.0152
2563.25,0.0152
2563.00,0.0153
2562.75,0.0153
2562.50,0.0153
2562.25,0.0153
2562.00,0.0153
2561.75,0.0153
2561.50,0.0153
2561.25,0.0153
2561.00,0.0152
2560.75,0.0153
2560.50,0.0154
2560.25,0.0154
2560.00,0.0155
2559.75,0.0155
2559.50,0.0154
2559.25,0.0153
2559.00,0.0152
2558.75,0.0152
2558.50,0.0153
2558.25,0.0153
2558.00,0.0154
2557.75,0.0154
2557.50,0.0153
2557.25,0.0153
2557.00,0.0152
2556.75,0.0152
2556.50,0.0152
2556.25,0.0152
2556.00,0.0152
2555.75,0.0151
2555.50,0.0151
2555.25,0.0150
2555.00,0.0151
2554.75,0.0151
2554.50,0.0151
2554.25,0.0151
2554.00,0.0151
2553.75,0.0152
2553.50,0.0152
2553.25,0.0152
2553.00,0.0151
2552.75,0.0151
2552.50,0.0150
2552.25,0.0151
2552.00,0.0151
2551.75,0.0152
2551.50,0.0152
2551.25,0.0152
2551.00,0.0151
2550.75,0.0151
2550.50,0.0150
2550.25,0.0150
2550.00,0.0150
2549.75,0.0150
2549.50,0.0150
2549.25,0.0151
2549.00,0.0152
2548.75,0.0152
2548.50,0.0153
2548.25,0.0152
2548.00,0.0152
2547.75,0.0151
2547.50,0.0150
2547.25,0.0150
2547.00,0.0150
2546.75,0.0150
2546.50,0.0150
2546.25,0.0150
2546.00,0.0150
2545.75,0.0150
2545.50,0.0149
2545.25,0.0148
2545.00,0.0148
2544.75,0.0148
2544.50,0.0148
2544.25,0.0148
2544.00,0.0149
2543.75,0.0149
2543.50,0.0150
2543.25,0.0151
2543.00,0.0151
2542.75,0.0151
2542.50,0.0151
2542.25,0.0150
2542.00,0.0149
2541.75,0.0148
2541.50,0.0149
2541.25,0.0149
2541.00,0.0149
2540.75,0.0149
2540.50,0.0149
2540.25,0.0149
2540.00,0.0149
2539.75,0.0148
2539.50,0.0148
2539.25,0.0148
2539.00,0.0148
2538.75,0.0149
2538.50,0.0149
2538.25,0.0150
2538.00,0.0150
2537.75,0.0150
2537.50,0.0149
2537.25,0.0149
2537.00,0.0149
2536.75,0.0149
2536.50,0.0148
2536.25,0.0148
2536.00,0.0148
2535.75,0.0148
2535.50,0.0148
2535.25,0.0148
2535.00,0.0148
2534.75,0.0148
2534.50,0.0148
2534.25,0.0147
2534.00,0.0146
2533.75,0.0145
2533.50,0.0145
2533.25,0.0146
2533.00,0.0146
2532.75,0.0145
2532.50,0.0145
2532.25,0.0146
2532.00,0.0146
2531.75,0.0146
2531.50,0.0146
2531.25,0.0145
2531.00,0.0144
2530.75,0.0143
2530.50,0.0143
2530.25,0.0142
2530.00,0.0142
2529.75,0.0142
2529.50,0.0143
2529.25,0.0143
2529.00,0.0144
2528.75,0.0144
2528.50,0.0143
2528.25,0.0142
2528.00,0.0142
2527.75,0.0142
2527.50,0.0142
2527.25,0.0143
2527.00,0.0143
2526.75,0.0143
2526.50,0.0143
2526.25,0.0142
2526.00,0.0141
2525.75,0.0140
2525.50,0.0139
2525.25,0.0139
2525.00,0.0140
2524.75,0.0140
2524.50,0.0140
2524.25,0.0139
2524.00,0.0138
2523.75,0.0138
2523.50,0.0137
2523.25,0.0137
2523.00,0.0137
2522.75,0.0137
2522.50,0.0137
2522.25,0.0136
2522.00,0.0137
2521.75,0.0138
2521.50,0.0139
2521.25,0.0139
2521.00,0.0139
2520.75,0.0139
2520.50,0.0138
2520.25,0.0137
2520.00,0.0136
2519.75,0.0136
2519.50,0.0137
2519.25,0.0137
2519.00,0.0138
2518.75,0.0138
2518.50,0.0138
2518.25,0.0137
2518.00,0.0137
2517.75,0.0137
2517.50,0.0137
2517.25,0.0137
2517.00,0.0137
2516.75,0.0137
2516.50,0.0137
2516.25,0.0137
2516.00,0.0137
2515.75,0.0137
2515.50,0.0138
2515.25,0.0138
2515.00,0.0138
2514.75,0.0138
2514.50,0.0137
2514.25,0.0136
2514.00,0.0135
2513.75,0.0135
2513.50,0.0134
2513.25,0.0135
2513.00,0.0135
2512.75,0.0136
2512.50,0.0137
2512.25,0.0138
2512.00,0.0138
2511.75,0.0138
2511.50,0.0138
2511.25,0.0138
2511.00,0.0138
2510.75,0.0138
2510.50,0.0138
2510.25,0.0138
2510.00,0.0138
2509.75,0.0138
2509.50,0.0138
2509.25,0.0138
2509.00,0.0138
2508.75,0.0137
2508.50,0.0137
2508.25,0.0137
2508.00,0.0138
2507.75,0.0138
2507.50,0.0139
2507.25,0.0140
2507.00,0.0140
2506.75,0.0141
2506.50,0.0141
2506.25,0.0142
2506.00,0.0142
2505.75,0.0141
2505.50,0.0140
2505.25,0.0140
2505.00,0.0139
2504.75,0.0139
2504.50,0.0140
2504.25,0.0140
2504.00,0.0140
2503.75,0.0140
2503.50,0.0140
2503.25,0.0141
2503.00,0.0141
2502.75,0.0142
2502.50,0.0142
2502.25,0.0142
2502.00,0.0143
2501.75,0.0143
2501.50,0.0144
2501.25,0.0144
2501.00,0.0144
2500.75,0.0144
2500.50,0.0145
2500.25,0.0145
2500.00,0.0146
2499.75,0.0146
2499.50,0.0146
2499.25,0.0145
2499.00,0.0144
2498.75,0.0144
2498.50,0.0145
2498.25,0.0146
2498.00,0.0148
2497.75,0.0149
2497.50,0.0149
2497.25,0.0148
2497.00,0.0147
2496.75,0.0146
2496.50,0.0145
2496.25,0.0145
2496.00,0.0145
2495.75,0.0146
2495.50,0.0146
2495.25,0.0146
2495.00,0.0146
2494.75,0.0146
2494.50,0.0146
2494.25,0.0146
2494.00,0.0146
2493.75,0.0146
2493.50,0.0147
2493.25,0.0147
2493.00,0.0147
2492.75,0.0148
2492.50,0.0149
2492.25,0.0149
2492.00,0.0148
2491.75,0.0148
2491.50,0.0148
2491.25,0.0148
2491.00,0.0148
2490.75,0.0149
2490.50,0.0149
2490.25,0.0150
2490.00,0.0149
2489.75,0.0149
2489.50,0.0147
2489.25,0.0146
2489.00,0.0145
2488.75,0.0145
2488.50,0.0145
2488.25,0.0146
2488.00,0.0146
2487.75,0.0147
2487.50,0.0147
2487.25,0.0148
2487.00,0.0148
2486.75,0.0148
2486.50,0.0148
2486.25,0.0148
2486.00,0.0148
2485.75,0.0148
2485.50,0.0148
2485.25,0.0148
2485.00,0.0148
2484.75,0.0148
2484.50,0.0148
2484.25,0.0148
2484.00,0.0148
2483.75,0.0148
2483.50,0.0147
2483.25,0.0147
2483.00,0.0147
2482.75,0.0148
2482.50,0.0148
2482.25,0.0149
2482.00,0.0149
2481.75,0.0149
2481.50,0.0149
2481.25,0.0149
2481.00,0.0149
2480.75,0.0150
2480.50,0.0150
2480.25,0.0150
2480.00,0.0150
2479.75,0.0150
2479.50,0.0150
2479.25,0.0151
2479.00,0.0151
2478.75,0.0151
2478.50,0.0151
2478.25,0.0151
2478.00,0.0150
2477.75,0.0150
2477.50,0.0149
2477.25,0.0149
2477.00,0.0150
2476.75,0.0150
2476.50,0.0150
2476.25,0.0150
2476.00,0.0150
2475.75,0.0150
2475.50,0.0150
2475.25,0.0150
2475.00,0.0150
2474.75,0.0149
2474.50,0.0149
2474.25,0.0148
2474.00,0.0148
2473.75,0.0147
2473.50,0.0147
2473.25,0.0147
2473.00,0.0148
2472.75,0.0149
2472.50,0.0150
2472.25,0.0151
2472.00,0.0151
2471.75,0.0150
2471.50,0.0150
2471.25,0.0149
2471.00,0.0149
2470.75,0.0149
2470.50,0.0149
2470.25,0.0149
2470.00,0.0149
2469.75,0.0149
2469.50,0.0149
2469.25,0.0148
2469.00,0.0148
2468.75,0.0149
2468.50,0.0149
2468.25,0.0149
2468.00,0.0150
2467.75,0.0150
2467.50,0.0150
2467.25,0.0151
2467.00,0.0151
2466.75,0.0152
2466.50,0.0152
2466.25,0.0151
2466.00,0.0150
2465.75,0.0150
2465.50,0.0149
2465.25,0.0149
2465.00,0.0149
2464.75,0.0150
2464.50,0.0150
2464.25,0.0150
2464.00,0.0150
2463.75,0.0150
2463.50,0.0150
2463.25,0.0149
2463.00,0.0149
2462.75,0.0149
2462.50,0.0149
2462.25,0.0150
2462.00,0.0150
2461.75,0.0150
2461.50,0.0150
2461.25,0.0150
2461.00,0.0150
2460.75,0.0150
2460.50,0.0150
2460.25,0.0150
2460.00,0.0149
2459.75,0.0149
2459.50,0.0149
2459.25,0.0149
2459.00,0.0149
2458.75,0.0149
2458.50,0.0149
2458.25,0.0149
2458.00,0.0148
2457.75,0.0148
2457.50,0.0148
2457.25,0.0148
2457.00,0.0149
2456.75,0.0149
2456.50,0.0149
2456.25,0.0149
2456.00,0.0149
2455.75,0.0148
2455.50,0.0148
2455.25,0.0148
2455.00,0.0148
2454.75,0.0148
2454.50,0.0147
2454.25,0.0148
2454.00,0.0148
2453.75,0.0148
2453.50,0.0148
2453.25,0.0148
2453.00,0.0148
2452.75,0.0148
2452.50,0.0148
2452.25,0.0148
2452.00,0.0148
2451.75,0.0148
2451.50,0.0148
2451.25,0.0149
2451.00,0.0149
2450.75,0.0148
2450.50,0.0148
2450.25,0.0148
2450.00,0.0149
2449.75,0.0149
2449.50,0.0148
2449.25,0.0148
2449.00,0.0148
2448.75,0.0148
2448.50,0.0149
2448.25,0.0149
2448.00,0.0149
2447.75,0.0149
2447.50,0.0149
2447.25,0.0149
2447.00,0.0149
2446.75,0.0149
2446.50,0.0150
2446.25,0.0150
2446.00,0.0150
2445.75,0.0150
2445.50,0.0149
2445.25,0.0148
2445.00,0.0147
2444.75,0.0146
2444.50,0.0146
2444.25,0.0146
2444.00,0.0147
2443.75,0.0148
2443.50,0.0148
2443.25,0.0149
2443.00,0.0149
2442.75,0.0149
2442.50,0.0149
2442.25,0.0149
2442.00,0.0149
2441.75,0.0149
2441.50,0.0148
2441.25,0.0148
2441.00,0.0148
2440.75,0.0148
2440.50,0.0148
2440.25,0.0148
2440.00,0.0148
2439.75,0.0148
2439.50,0.0148
2439.25,0.0149
2439.00,0.0149
2438.75,0.0149
2438.50,0.0149
2438.25,0.0148
2438.00,0.0148
2437.75,0.0148
2437.50,0.0147
2437.25,0.0147
2437.00,0.0147
2436.75,0.0147
2436.50,0.0147
2436.25,0.0147
2436.00,0.0146
2435.75,0.0146
2435.50,0.0146
2435.25,0.0146
2435.00,0.0146
2434.75,0.0147
2434.50,0.0147
2434.25,0.0148
2434.00,0.0148
2433.75,0.0148
2433.50,0.0147
2433.25,0.0147
2433.00,0.0147
2432.75,0.0147
2432.50,0.0147
2432.25,0.0147
2432.00,0.0147
2431.75,0.0147
2431.50,0.0147
2431.25,0.0147
2431.00,0.0147
2430.75,0.0146
2430.50,0.0146
2430.25,0.0147
2430.00,0.0148
2429.75,0.0149
2429.50,0.0149
2429.25,0.0150
2429.00,0.0149
2428.75,0.0148
2428.50,0.0147
2428.25,0.0147
2428.00,0.0147
2427.75,0.0147
2427.50,0.0147
2427.25,0.0147
2427.00,0.0147
2426.75,0.0147
2426.50,0.0148
2426.25,0.0148
2426.00,0.0148
2425.75,0.0148
2425.50,0.0148
2425.25,0.0149
2425.00,0.0149
2424.75,0.0149
2424.50,0.0150
2424.25,0.0150
2424.00,0.0149
2423.75,0.0149
2423.50,0.0149
2423.25,0.0150
2423.00,0.0150
2422.75,0.0150
2422.50,0.0150
2422.25,0.0150
2422.00,0.0150
2421.75,0.0150
2421.50,0.0150
2421.25,0.0150
2421.00,0.0150
2420.75,0.0151
2420.50,0.0151
2420.25,0.0150
2420.00,0.0150
2419.75,0.0149
2419.50,0.0149
2419.25,0.0148
2419.00,0.0147
2418.75,0.0148
2418.50,0.0149
2418.25,0.0150
2418.00,0.0151
2417.75,0.0151
2417.50,0.0150
2417.25,0.0150
2417.00,0.0149
2416.75,0.0149
2416.50,0.0150
2416.25,0.0150
2416.00,0.0151
2415.75,0.0151
2415.50,0.0152
2415.25,0.0151
2415.00,0.0151
2414.75,0.0150
2414.50,0.0149
2414.25,0.0148
2414.00,0.0148
2413.75,0.0148
2413.50,0.0149
2413.25,0.0149
2413.00,0.0149
2412.75,0.0149
2412.50,0.0150
2412.25,0.0151
2412.00,0.0151
2411.75,0.0152
2411.50,0.0153
2411.25,0.0153
2411.00,0.0153
2410.75,0.0152
2410.50,0.0151
2410.25,0.0151
2410.00,0.0150
2409.75,0.0150
2409.50,0.0149
2409.25,0.0149
2409.00,0.0150
2408.75,0.0150
2408.50,0.0152
2408.25,0.0153
2408.00,0.0153
2407.75,0.0153
2407.50,0.0152
2407.25,0.0151
2407.00,0.0150
2406.75,0.0149
2406.50,0.0149
2406.25,0.0149
2406.00,0.0149
2405.75,0.0149
2405.50,0.0149
2405.25,0.0150
2405.00,0.0150
2404.75,0.0150
2404.50,0.0150
2404.25,0.0150
2404.00,0.0150
2403.75,0.0151
2403.50,0.0151
2403.25,0.0151
2403.00,0.0151
2402.75,0.0150
2402.50,0.0149
2402.25,0.0149
2402.00,0.0149
2401.75,0.0149
2401.50,0.0149
2401.25,0.0150
2401.00,0.0150
2400.75,0.0150
2400.50,0.0150
2400.25,0.0150
2400.00,0.0151
2399.75,0.0151
2399.50,0.0151
2399.25,0.0151
2399.00,0.0151
2398.75,0.0151
2398.50,0.0151
2398.25,0.0151
2398.00,0.0151
2397.75,0.0152
2397.50,0.0152
2397.25,0.0153
2397.00,0.0153
2396.75,0.0152
2396.50,0.0152
2396.25,0.0151
2396.00,0.0151
2395.75,0.0152
2395.50,0.0151
2395.25,0.0151
2395.00,0.0151
2394.75,0.0151
2394.50,0.0151
2394.25,0.0151
2394.00,0.0151
2393.75,0.0151
2393.50,0.0151
2393.25,0.0151
2393.00,0.0151
2392.75,0.0151
2392.50,0.0151
2392.25,0.0151
2392.00,0.0151
2391.75,0.0151
2391.50,0.0151
2391.25,0.0152
2391.00,0.0152
2390.75,0.0152
2390.50,0.0152
2390.25,0.0152
2390.00,0.0153
2389.75,0.0153
2389.50,0.0153
2389.25,0.0154
2389.00,0.0154
2388.75,0.0154
2388.50,0.0154
2388.25,0.0154
2388.00,0.0153
2387.75,0.0153
2387.50,0.0153
2387.25,0.0152
2387.00,0.0152
2386.75,0.0152
2386.50,0.0152
2386.25,0.0153
2386.00,0.0153
2385.75,0.0153
2385.50,0.0153
2385.25,0.0153
2385.00,0.0152
2384.75,0.0153
2384.50,0.0153
2384.25,0.0154
2384.00,0.0154
2383.75,0.0154
2383.50,0.0154
2383.25,0.0154
2383.00,0.0155
2382.75,0.0154
2382.50,0.0154
2382.25,0.0153
2382.00,0.0153
2381.75,0.0153
2381.50,0.0153
2381.25,0.0154
2381.00,0.0155
2380.75,0.0156
2380.50,0.0157
2380.25,0.0157
2380.00,0.0157
2379.75,0.0157
2379.50,0.0157
2379.25,0.0157
2379.00,0.0157
2378.75,0.0157
2378.50,0.0157
2378.25,0.0156
2378.00,0.0157
2377.75,0.0157
2377.50,0.0158
2377.25,0.0158
2377.00,0.0158
2376.75,0.0157
2376.50,0.0157
2376.25,0.0157
2376.00,0.0157
2375.75,0.0157
2375.50,0.0157
2375.25,0.0156
2375.00,0.0156
2374.75,0.0157
2374.50,0.0157
2374.25,0.0158
2374.00,0.0159
2373.75,0.0160
2373.50,0.0160
2373.25,0.0160
2373.00,0.0160
2372.75,0.0159
2372.50,0.0158
2372.25,0.0158
2372.00,0.0159
2371.75,0.0160
2371.50,0.0160
2371.25,0.0160
2371.00,0.0161
2370.75,0.0161
2370.50,0.0160
2370.25,0.0160
2370.00,0.0159
2369.75,0.0160
2369.50,0.0160
2369.25,0.0160
2369.00,0.0160
2368.75,0.0160
2368.50,0.0160
2368.25,0.0161
2368.00,0.0161
2367.75,0.0162
2367.50,0.0165
2367.25,0.0168
2367.00,0.0170
2366.75,0.0171
2366.50,0.0169
2366.25,0.0167
2366.00,0.0166
2365.75,0.0165
2365.50,0.0163
2365.25,0.0161
2365.00,0.0160
2364.75,0.0161
2364.50,0.0161
2364.25,0.0161
2364.00,0.0160
2363.75,0.0160
2363.50,0.0161
2363.25,0.0162
2363.00,0.0162
2362.75,0.0160
2362.50,0.0160
2362.25,0.0161
2362.00,0.0162
2361.75,0.0164
2361.50,0.0165
2361.25,0.0167
2361.00,0.0169
2360.75,0.0170
2360.50,0.0169
2360.25,0.0168
2360.00,0.0166
2359.75,0.0165
2359.50,0.0165
2359.25,0.0166
2359.00,0.0166
2358.75,0.0165
2358.50,0.0164
2358.25,0.0163
2358.00,0.0162
2357.75,0.0161
2357.50,0.0161
2357.25,0.0162
2357.00,0.0164
2356.75,0.0167
2356.50,0.0168
2356.25,0.0169
2356.00,0.0168
2355.75,0.0167
2355.50,0.0166
2355.25,0.0166
2355.00,0.0166
2354.75,0.0165
2354.50,0.0163
2354.25,0.0162
2354.00,0.0161
2353.75,0.0162
2353.50,0.0163
2353.25,0.0163
2353.00,0.0164
2352.75,0.0165
2352.50,0.0165
2352.25,0.0166
2352.00,0.0166
2351.75,0.0166
2351.50,0.0166
2351.25,0.0165
2351.00,0.0165
2350.75,0.0164
2350.50,0.0164
2350.25,0.0164
2350.00,0.0164
2349.75,0.0164
2349.50,0.0164
2349.25,0.0163
2349.00,0.0162
2348.75,0.0162
2348.50,0.0162
2348.25,0.0162
2348.00,0.0163
2347.75,0.0163
2347.50,0.0164
2347.25,0.0165
2347.00,0.0165
2346.75,0.0164
2346.50,0.0164
2346.25,0.0163
2346.00,0.0162
2345.75,0.0162
2345.50,0.0163
2345.25,0.0164
2345.00,0.0164
2344.75,0.0163
2344.50,0.0162
2344.25,0.0161
2344.00,0.0161
2343.75,0.0162
2343.50,0.0162
2343.25,0.0163
2343.00,0.0163
2342.75,0.0163
2342.50,0.0163
2342.25,0.0164
2342.00,0.0165
2341.75,0.0165
2341.50,0.0165
2341.25,0.0165
2341.00,0.0165
2340.75,0.0165
2340.50,0.0167
2340.25,0.0167
2340.00,0.0167
2339.75,0.0168
2339.50,0.0167
2339.25,0.0166
2339.00,0.0166
2338.75,0.0166
2338.50,0.0166
2338.25,0.0166
2338.00,0.0167
2337.75,0.0168
2337.50,0.0169
2337.25,0.0169
2337.00,0.0169
2336.75,0.0169
2336.50,0.0168
2336.25,0.0167
2336.00,0.0165
2335.75,0.0164
2335.50,0.0165
2335.25,0.0167
2335.00,0.0167
2334.75,0.0167
2334.50,0.0168
2334.25,0.0167
2334.00,0.0166
2333.75,0.0166
2333.50,0.0166
2333.25,0.0165
2333.00,0.0165
2332.75,0.0165
2332.50,0.0164
2332.25,0.0164
2332.00,0.0165
2331.75,0.0165
2331.50,0.0165
2331.25,0.0166
2331.00,0.0167
2330.75,0.0168
2330.50,0.0169
2330.25,0.0169
2330.00,0.0168
2329.75,0.0166
2329.50,0.0164
2329.25,0.0163
2329.00,0.0163
2328.75,0.0164
2328.50,0.0165
2328.25,0.0167
2328.00,0.0167
2327.75,0.0167
2327.50,0.0166
2327.25,0.0166
2327.00,0.0166
2326.75,0.0166
2326.50,0.0165
2326.25,0.0165
2326.00,0.0164
2325.75,0.0164
2325.50,0.0164
2325.25,0.0165
2325.00,0.0166
2324.75,0.0166
2324.50,0.0166
2324.25,0.0165
2324.00,0.0164
2323.75,0.0163
2323.50,0.0163
2323.25,0.0164
2323.00,0.0165
2322.75,0.0166
2322.50,0.0166
2322.25,0.0165
2322.00,0.0163
2321.75,0.0162
2321.50,0.0161
2321.25,0.0160
2321.00,0.0160
2320.75,0.0160
2320.50,0.0159
2320.25,0.0157
2320.00,0.0156
2319.75,0.0155
2319.50,0.0156
2319.25,0.0157
2319.00,0.0158
2318.75,0.0160
2318.50,0.0159
2318.25,0.0158
2318.00,0.0157
2317.75,0.0156
2317.50,0.0156
2317.25,0.0157
2317.00,0.0157
2316.75,0.0158
2316.50,0.0157
2316.25,0.0156
2316.00,0.0154
2315.75,0.0154
2315.50,0.0154
2315.25,0.0154
2315.00,0.0155
2314.75,0.0155
2314.50,0.0155
2314.25,0.0154
2314.00,0.0153
2313.75,0.0152
2313.50,0.0151
2313.25,0.0150
2313.00,0.0149
2312.75,0.0150
2312.50,0.0151
2312.25,0.0152
2312.00,0.0152
2311.75,0.0151
2311.50,0.0151
2311.25,0.0150
2311.00,0.0150
2310.75,0.0150
2310.50,0.0151
2310.25,0.0151
2310.00,0.0151
2309.75,0.0150
2309.50,0.0150
2309.25,0.0149
2309.00,0.0148
2308.75,0.0148
2308.50,0.0148
2308.25,0.0148
2308.00,0.0149
2307.75,0.0150
2307.50,0.0151
2307.25,0.0151
2307.00,0.0152
2306.75,0.0152
2306.50,0.0151
2306.25,0.0150
2306.00,0.0149
2305.75,0.0148
2305.50,0.0148
2305.25,0.0148
2305.00,0.0148
2304.75,0.0148
2304.50,0.0149
2304.25,0.0149
2304.00,0.0148
2303.75,0.0148
2303.50,0.0147
2303.25,0.0146
2303.00,0.0146
2302.75,0.0146
2302.50,0.0145
2302.25,0.0145
2302.00,0.0145
2301.75,0.0145
2301.50,0.0145
2301.25,0.0145
2301.00,0.0145
2300.75,0.0144
2300.50,0.0143
2300.25,0.0143
2300.00,0.0143
2299.75,0.0143
2299.50,0.0143
2299.25,0.0143
2299.00,0.0142
2298.75,0.0142
2298.50,0.0141
2298.25,0.0141
2298.00,0.0142
2297.75,0.0142
2297.50,0.0142
2297.25,0.0143
2297.00,0.0143
2296.75,0.0144
2296.50,0.0144
2296.25,0.0144
2296.00,0.0144
2295.75,0.0143
2295.50,0.0142
2295.25,0.0142
2295.00,0.0143
2294.75,0.0143
2294.50,0.0144
2294.25,0.0144
2294.00,0.0143
2293.75,0.0143
2293.50,0.0142
2293.25,0.0141
2293.00,0.0140
2292.75,0.0140
2292.50,0.0140
2292.25,0.0141
2292.00,0.0142
2291.75,0.0142
2291.50,0.0143
2291.25,0.0143
2291.00,0.0142
2290.75,0.0142
2290.50,0.0140
2290.25,0.0139
2290.00,0.0138
2289.75,0.0137
2289.50,0.0137
2289.25,0.0137
2289.00,0.0138
2288.75,0.0139
2288.50,0.0141
2288.25,0.0141
2288.00,0.0141
2287.75,0.0140
2287.50,0.0139
2287.25,0.0138
2287.00,0.0137
2286.75,0.0135
2286.50,0.0135
2286.25,0.0134
2286.00,0.0135
2285.75,0.0136
2285.50,0.0136
2285.25,0.0137
2285.00,0.0137
2284.75,0.0137
2284.50,0.0137
2284.25,0.0136
2284.00,0.0135
2283.75,0.0135
2283.50,0.0134
2283.25,0.0134
2283.00,0.0133
2282.75,0.0133
2282.50,0.0132
2282.25,0.0132
2282.00,0.0131
2281.75,0.0131
2281.50,0.0130
2281.25,0.0130
2281.00,0.0129
2280.75,0.0129
2280.50,0.0129
2280.25,0.0129
2280.00,0.0129
2279.75,0.0129
2279.50,0.0130
2279.25,0.0130
2279.00,0.0131
2278.75,0.0131
2278.50,0.0131
2278.25,0.0131
2278.00,0.0130
2277.75,0.0129
2277.50,0.0127
2277.25,0.0126
2277.00,0.0126
2276.75,0.0126
2276.50,0.0126
2276.25,0.0126
2276.00,0.0126
2275.75,0.0125
2275.50,0.0125
2275.25,0.0125
2275.00,0.0124
2274.75,0.0124
2274.50,0.0123
2274.25,0.0123
2274.00,0.0124
2273.75,0.0125
2273.50,0.0126
2273.25,0.0125
2273.00,0.0123
2272.75,0.0121
2272.50,0.0120
2272.25,0.0119
2272.00,0.0118
2271.75,0.0119
2271.50,0.0119
2271.25,0.0120
2271.00,0.0122
2270.75,0.0123
2270.50,0.0123
2270.25,0.0123
2270.00,0.0121
2269.75,0.0119
2269.50,0.0118
2269.25,0.0117
2269.00,0.0117
2268.75,0.0118
2268.50,0.0119
2268.25,0.0120
2268.00,0.0121
2267.75,0.0122
2267.50,0.0122
2267.25,0.0121
2267.00,0.0119
2266.75,0.0118
2266.50,0.0117
2266.25,0.0116
2266.00,0.0117
2265.75,0.0117
2265.50,0.0117
2265.25,0.0117
2265.00,0.0116
2264.75,0.0116
2264.50,0.0117
2264.25,0.0118
2264.00,0.0119
2263.75,0.0119
2263.50,0.0119
2263.25,0.0118
2263.00,0.0118
2262.75,0.0118
2262.50,0.0118
2262.25,0.0119
2262.00,0.0119
2261.75,0.0118
2261.50,0.0117
2261.25,0.0115
2261.00,0.0113
2260.75,0.0112
2260.50,0.0112
2260.25,0.0113
2260.00,0.0114
2259.75,0.0115
2259.50,0.0116
2259.25,0.0117
2259.00,0.0118
2258.75,0.0118
2258.50,0.0118
2258.25,0.0117
2258.00,0.0116
2257.75,0.0114
2257.50,0.0114
2257.25,0.0114
2257.00,0.0115
2256.75,0.0117
2256.50,0.0118
2256.25,0.0118
2256.00,0.0118
2255.75,0.0116
2255.50,0.0115
2255.25,0.0113
2255.00,0.0111
2254.75,0.0110
2254.50,0.0109
2254.25,0.0110
2254.00,0.0111
2253.75,0.0112
2253.50,0.0112
2253.25,0.0111
2253.00,0.0110
2252.75,0.0109
2252.50,0.0109
2252.25,0.0109
2252.00,0.0109
2251.75,0.0109
2251.50,0.0108
2251.25,0.0107
2251.00,0.0107
2250.75,0.0108
2250.50,0.0108
2250.25,0.0109
2250.00,0.0110
2249.75,0.0110
2249.50,0.0109
2249.25,0.0108
2249.00,0.0107
2248.75,0.0106
2248.50,0.0106
2248.25,0.0106
2248.00,0.0107
2247.75,0.0107
2247.50,0.0106
2247.25,0.0106
2247.00,0.0106
2246.75,0.0106
2246.50,0.0105
2246.25,0.0103
2246.00,0.0102
2245.75,0.0102
2245.50,0.0102
2245.25,0.0104
2245.00,0.0105
2244.75,0.0105
2244.50,0.0106
2244.25,0.0106
2244.00,0.0106
2243.75,0.0107
2243.50,0.0107
2243.25,0.0107
2243.00,0.0106
2242.75,0.0106
2242.50,0.0106
2242.25,0.0106
2242.00,0.0105
2241.75,0.0104
2241.50,0.0103
2241.25,0.0103
2241.00,0.0102
2240.75,0.0102
2240.50,0.0102
2240.25,0.0102
2240.00,0.0102
2239.75,0.0102
2239.50,0.0103
2239.25,0.0103
2239.00,0.0103
2238.75,0.0103
2238.50,0.0102
2238.25,0.0101
2238.00,0.0100
2237.75,0.0100
2237.50,0.0100
2237.25,0.0100
2237.00,0.0099
2236.75,0.0099
2236.50,0.0099
2236.25,0.0100
2236.00,0.0101
2235.75,0.0102
2235.50,0.0102
2235.25,0.0100
2235.00,0.0099
2234.75,0.0097
2234.50,0.0095
2234.25,0.0094
2234.00,0.0093
2233.75,0.0094
2233.50,0.0095
2233.25,0.0096
2233.00,0.0097
2232.75,0.0097
2232.50,0.0097
2232.25,0.0097
2232.00,0.0097
2231.75,0.0097
2231.50,0.0097
2231.25,0.0097
2231.00,0.0098
2230.75,0.0100
2230.50,0.0101
2230.25,0.0100
2230.00,0.0099
2229.75,0.0097
2229.50,0.0094
2229.25,0.0092
2229.00,0.0092
2228.75,0.0092
2228.50,0.0094
2228.25,0.0095
2228.00,0.0096
2227.75,0.0096
2227.50,0.0095
2227.25,0.0094
2227.00,0.0094
2226.75,0.0095
2226.50,0.0095
2226.25,0.0095
2226.00,0.0094
2225.75,0.0092
2225.50,0.0090
2225.25,0.0088
2225.00,0.0086
2224.75,0.0085
2224.50,0.0085
2224.25,0.0085
2224.00,0.0086
2223.75,0.0087
2223.50,0.0088
2223.25,0.0089
2223.00,0.0089
2222.75,0.0090
2222.50,0.0091
2222.25,0.0091
2222.00,0.0092
2221.75,0.0091
2221.50,0.0089
2221.25,0.0087
2221.00,0.0086
2220.75,0.0085
2220.50,0.0084
2220.25,0.0084
2220.00,0.0085
2219.75,0.0086
2219.50,0.0086
2219.25,0.0086
2219.00,0.0086
2218.75,0.0086
2218.50,0.0086
2218.25,0.0085
2218.00,0.0085
2217.75,0.0084
2217.50,0.0083
2217.25,0.0084
2217.00,0.0085
2216.75,0.0085
2216.50,0.0085
2216.25,0.0085
2216.00,0.0085
2215.75,0.0084
2215.50,0.0084
2215.25,0.0085
2215.00,0.0085
2214.75,0.0084
2214.50,0.0082
2214.25,0.0080
2214.00,0.0078
2213.75,0.0076
2213.50,0.0074
2213.25,0.0074
2213.00,0.0075
2212.75,0.0077
2212.50,0.0079
2212.25,0.0081
2212.00,0.0081
2211.75,0.0081
2211.50,0.0080
2211.25,0.0079
2211.00,0.0078
2210.75,0.0076
2210.50,0.0075
2210.25,0.0075
2210.00,0.0076
2209.75,0.0078
2209.50,0.0080
2209.25,0.0081
2209.00,0.0082
2208.75,0.0081
2208.50,0.0080
2208.25,0.0078
2208.00,0.0078
2207.75,0.0077
2207.50,0.0077
2207.25,0.0077
2207.00,0.0076
2206.75,0.0074
2206.50,0.0072
2206.25,0.0071
2206.00,0.0071
2205.75,0.0071
2205.50,0.0072
2205.25,0.0072
2205.00,0.0072
2204.75,0.0072
2204.50,0.0073
2204.25,0.0074
2204.00,0.0076
2203.75,0.0076
2203.50,0.0075
2203.25,0.0074
2203.00,0.0073
2202.75,0.0072
2202.50,0.0071
2202.25,0.0071
2202.00,0.0071
2201.75,0.0071
2201.50,0.0071
2201.25,0.0070
2201.00,0.0070
2200.75,0.0071
2200.50,0.0072
2200.25,0.0073
2200.00,0.0073
2199.75,0.0074
2199.50,0.0073
2199.25,0.0073
2199.00,0.0072
2198.75,0.0071
2198.50,0.0069
2198.25,0.0068
2198.00,0.0067
2197.75,0.0067
2197.50,0.0066
2197.25,0.0066
2197.00,0.0065
2196.75,0.0065
2196.50,0.0065
2196.25,0.0064
2196.00,0.0064
2195.75,0.0064
2195.50,0.0064
2195.25,0.0065
2195.00,0.0066
2194.75,0.0067
2194.50,0.0066
2194.25,0.0066
2194.00,0.0064
2193.75,0.0064
2193.50,0.0063
2193.25,0.0063
2193.00,0.0064
2192.75,0.0065
2192.50,0.0065
2192.25,0.0064
2192.00,0.0063
2191.75,0.0062
2191.50,0.0061
2191.25,0.0059
2191.00,0.0058
2190.75,0.0057
2190.50,0.0056
2190.25,0.0057
2190.00,0.0058
2189.75,0.0059
2189.50,0.0059
2189.25,0.0059
2189.00,0.0059
2188.75,0.0060
2188.50,0.0061
2188.25,0.0061
2188.00,0.0061
2187.75,0.0061
2187.50,0.0061
2187.25,0.0062
2187.00,0.0063
2186.75,0.0062
2186.50,0.0059
2186.25,0.0056
2186.00,0.0053
2185.75,0.0052
2185.50,0.0051
2185.25,0.0052
2185.00,0.0053
2184.75,0.0056
2184.50,0.0058
2184.25,0.0059
2184.00,0.0059
2183.75,0.0057
2183.50,0.0056
2183.25,0.0054
2183.00,0.0053
2182.75,0.0051
2182.50,0.0050
2182.25,0.0050
2182.00,0.0050
2181.75,0.0052
2181.50,0.0054
2181.25,0.0055
2181.00,0.0055
2180.75,0.0053
2180.50,0.0052
2180.25,0.0051
2180.00,0.0051
2179.75,0.0051
2179.50,0.0051
2179.25,0.0051
2179.00,0.0051
2178.75,0.0051
2178.50,0.0052
2178.25,0.0052
2178.00,0.0052
2177.75,0.0052
2177.50,0.0053
2177.25,0.0054
2177.00,0.0054
2176.75,0.0053
2176.50,0.0052
2176.25,0.0051
2176.00,0.0049
2175.75,0.0048
2175.50,0.0048
2175.25,0.0048
2175.00,0.0047
2174.75,0.0047
2174.50,0.0045
2174.25,0.0044
2174.00,0.0045
2173.75,0.0046
2173.50,0.0048
2173.25,0.0049
2173.00,0.0048
2172.75,0.0048
2172.50,0.0047
2172.25,0.0047
2172.00,0.0048
2171.75,0.0049
2171.50,0.0050
2171.25,0.0051
2171.00,0.0050
2170.75,0.0049
2170.50,0.0047
2170.25,0.0045
2170.00,0.0044
2169.75,0.0044
2169.50,0.0044
2169.25,0.0045
2169.00,0.0045
2168.75,0.0044
2168.50,0.0043
2168.25,0.0043
2168.00,0.0042
2167.75,0.0042
2167.50,0.0042
2167.25,0.0041
2167.00,0.0041
2166.75,0.0041
2166.50,0.0040
2166.25,0.0039
2166.00,0.0036
2165.75,0.0034
2165.50,0.0034
2165.25,0.0035
2165.00,0.0036
2164.75,0.0037
2164.50,0.0037
2164.25,0.0037
2164.00,0.0036
2163.75,0.0035
2163.50,0.0035
2163.25,0.0034
2163.00,0.0034
2162.75,0.0034
2162.50,0.0035
2162.25,0.0036
2162.00,0.0037
2161.75,0.0037
2161.50,0.0037
2161.25,0.0036
2161.00,0.0033
2160.75,0.0030
2160.50,0.0027
2160.25,0.0025
2160.00,0.0023
2159.75,0.0023
2159.50,0.0024
2159.25,0.0025
2159.00,0.0027
2158.75,0.0029
2158.50,0.0029
2158.25,0.0028
2158.00,0.0027
2157.75,0.0026
2157.50,0.0026
2157.25,0.0026
2157.00,0.0027
2156.75,0.0028
2156.50,0.0031
2156.25,0.0033
2156.00,0.0034
2155.75,0.0033
2155.50,0.0032
2155.25,0.0031
2155.00,0.0032
2154.75,0.0034
2154.50,0.0036
2154.25,0.0038
2154.00,0.0039
2153.75,0.0040
2153.50,0.0041
2153.25,0.0042
2153.00,0.0043
2152.75,0.0044
2152.50,0.0045
2152.25,0.0045
2152.00,0.0045
2151.75,0.0044
2151.50,0.0045
2151.25,0.0047
2151.00,0.0049
2150.75,0.0050
2150.50,0.0052
2150.25,0.0052
2150.00,0.0052
2149.75,0.0052
2149.50,0.0052
2149.25,0.0052
2149.00,0.0051
2148.75,0.0049
2148.50,0.0048
2148.25,0.0049
2148.00,0.0051
2147.75,0.0053
2147.50,0.0054
2147.25,0.0053
2147.00,0.0053
2146.75,0.0053
2146.50,0.0053
2146.25,0.0053
2146.00,0.0052
2145.75,0.0051
2145.50,0.0049
2145.25,0.0049
2145.00,0.0050
2144.75,0.0053
2144.50,0.0056
2144.25,0.0059
2144.00,0.0062
2143.75,0.0062
2143.50,0.0062
2143.25,0.0062
2143.00,0.0063
2142.75,0.0064
2142.50,0.0065
2142.25,0.0066
2142.00,0.0065
2141.75,0.0063
2141.50,0.0061
2141.25,0.0060
2141.00,0.0060
2140.75,0.0061
2140.50,0.0062
2140.25,0.0064
2140.00,0.0065
2139.75,0.0066
2139.50,0.0067
2139.25,0.0068
2139.00,0.0068
2138.75,0.0068
2138.50,0.0068
2138.25,0.0068
2138.00,0.0068
2137.75,0.0069
2137.50,0.0070
2137.25,0.0070
2137.00,0.0071
2136.75,0.0070
2136.50,0.0070
2136.25,0.0069
2136.00,0.0068
2135.75,0.0068
2135.50,0.0068
2135.25,0.0069
2135.00,0.0070
2134.75,0.0072
2134.50,0.0073
2134.25,0.0074
2134.00,0.0074
2133.75,0.0074
2133.50,0.0074
2133.25,0.0076
2133.00,0.0078
2132.75,0.0080
2132.50,0.0081
2132.25,0.0082
2132.00,0.0082
2131.75,0.0082
2131.50,0.0082
2131.25,0.0083
2131.00,0.0083
2130.75,0.0084
2130.50,0.0084
2130.25,0.0084
2130.00,0.0084
2129.75,0.0085
2129.50,0.0085
2129.25,0.0085
2129.00,0.0085
2128.75,0.0085
2128.50,0.0086
2128.25,0.0087
2128.00,0.0089
2127.75,0.0089
2127.50,0.0090
2127.25,0.0091
2127.00,0.0091
2126.75,0.0092
2126.50,0.0092
2126.25,0.0092
2126.00,0.0093
2125.75,0.0093
2125.50,0.0093
2125.25,0.0094
2125.00,0.0093
2124.75,0.0093
2124.50,0.0092
2124.25,0.0092
2124.00,0.0091
2123.75,0.0091
2123.50,0.0092
2123.25,0.0094
2123.00,0.0096
2122.75,0.0096
2122.50,0.0096
2122.25,0.0095
2122.00,0.0094
2121.75,0.0094
2121.50,0.0095
2121.25,0.0097
2121.00,0.0099
2120.75,0.0101
2120.50,0.0101
2120.25,0.0100
2120.00,0.0098
2119.75,0.0097
2119.50,0.0096
2119.25,0.0097
2119.00,0.0098
2118.75,0.0100
2118.50,0.0101
2118.25,0.0101
2118.00,0.0101
2117.75,0.0101
2117.50,0.0101
2117.25,0.0101
2117.00,0.0101
2116.75,0.0100
2116.50,0.0099
2116.25,0.0098
2116.00,0.0097
2115.75,0.0098
2115.50,0.0098
2115.25,0.0099
2115.00,0.0099
2114.75,0.0099
2114.50,0.0098
2114.25,0.0098
2114.00,0.0098
2113.75,0.0098
2113.50,0.0099
2113.25,0.0100
2113.00,0.0100
2112.75,0.0100
2112.50,0.0100
2112.25,0.0099
2112.00,0.0098
2111.75,0.0097
2111.50,0.0097
2111.25,0.0098
2111.00,0.0098
2110.75,0.0099
2110.50,0.0099
2110.25,0.0099
2110.00,0.0098
2109.75,0.0097
2109.50,0.0095
2109.25,0.0095
2109.00,0.0094
2108.75,0.0095
2108.50,0.0096
2108.25,0.0097
2108.00,0.0097
2107.75,0.0097
2107.50,0.0097
2107.25,0.0097
2107.00,0.0099
2106.75,0.0100
2106.50,0.0101
2106.25,0.0101
2106.00,0.0100
2105.75,0.0100
2105.50,0.0099
2105.25,0.0099
2105.00,0.0099
2104.75,0.0098
2104.50,0.0099
2104.25,0.0099
2104.00,0.0100
2103.75,0.0099
2103.50,0.0098
2103.25,0.0096
2103.00,0.0096
2102.75,0.0098
2102.50,0.0099
2102.25,0.0101
2102.00,0.0102
2101.75,0.0102
2101.50,0.0102
2101.25,0.0102
2101.00,0.0102
2100.75,0.0101
2100.50,0.0101
2100.25,0.0099
2100.00,0.0097
2099.75,0.0095
2099.50,0.0094
2099.25,0.0093
2099.00,0.0093
2098.75,0.0094
2098.50,0.0095
2098.25,0.0096
2098.00,0.0097
2097.75,0.0098
2097.50,0.0098
2097.25,0.0098
2097.00,0.0098
2096.75,0.0098
2096.50,0.0098
2096.25,0.0099
2096.00,0.0099
2095.75,0.0100
2095.50,0.0100
2095.25,0.0100
2095.00,0.0100
2094.75,0.0100
2094.50,0.0099
2094.25,0.0099
2094.00,0.0098
2093.75,0.0099
2093.50,0.0099
2093.25,0.0099
2093.00,0.0099
2092.75,0.0099
2092.50,0.0098
2092.25,0.0098
2092.00,0.0097
2091.75,0.0098
2091.50,0.0098
2091.25,0.0099
2091.00,0.0099
2090.75,0.0100
2090.50,0.0099
2090.25,0.0098
2090.00,0.0097
2089.75,0.0097
2089.50,0.0096
2089.25,0.0096
2089.00,0.0096
2088.75,0.0096
2088.50,0.0097
2088.25,0.0098
2088.00,0.0099
2087.75,0.0100
2087.50,0.0100
2087.25,0.0100
2087.00,0.0100
2086.75,0.0100
2086.50,0.0099
2086.25,0.0098
2086.00,0.0097
2085.75,0.0095
2085.50,0.0094
2085.25,0.0092
2085.00,0.0091
2084.75,0.0091
2084.50,0.0091
2084.25,0.0092
2084.00,0.0093
2083.75,0.0094
2083.50,0.0095
2083.25,0.0095
2083.00,0.0096
2082.75,0.0097
2082.50,0.0097
2082.25,0.0097
2082.00,0.0096
2081.75,0.0096
2081.50,0.0095
2081.25,0.0095
2081.00,0.0095
2080.75,0.0095
2080.50,0.0095
2080.25,0.0095
2080.00,0.0094
2079.75,0.0094
2079.50,0.0093
2079.25,0.0092
2079.00,0.0091
2078.75,0.0091
2078.50,0.0091
2078.25,0.0090
2078.00,0.0090
2077.75,0.0090
2077.50,0.0091
2077.25,0.0092
2077.00,0.0093
2076.75,0.0094
2076.50,0.0095
2076.25,0.0094
2076.00,0.0093
2075.75,0.0093
2075.50,0.0092
2075.25,0.0092
2075.00,0.0092
2074.75,0.0092
2074.50,0.0093
2074.25,0.0094
2074.00,0.0094
2073.75,0.0093
2073.50,0.0093
2073.25,0.0092
2073.00,0.0091
2072.75,0.0090
2072.50,0.0089
2072.25,0.0088
2072.00,0.0088
2071.75,0.0088
2071.50,0.0087
2071.25,0.0086
2071.00,0.0086
2070.75,0.0086
2070.50,0.0086
2070.25,0.0087
2070.00,0.0087
2069.75,0.0087
2069.50,0.0087
2069.25,0.0088
2069.00,0.0090
2068.75,0.0091
2068.50,0.0091
2068.25,0.0090
2068.00,0.0088
2067.75,0.0086
2067.50,0.0084
2067.25,0.0083
2067.00,0.0083
2066.75,0.0083
2066.50,0.0083
2066.25,0.0083
2066.00,0.0082
2065.75,0.0083
2065.50,0.0083
2065.25,0.0084
2065.00,0.0085
2064.75,0.0085
2064.50,0.0085
2064.25,0.0085
2064.00,0.0085
2063.75,0.0086
2063.50,0.0086
2063.25,0.0086
2063.00,0.0086
2062.75,0.0086
2062.50,0.0085
2062.25,0.0084
2062.00,0.0084
2061.75,0.0085
2061.50,0.0085
2061.25,0.0086
2061.00,0.0085
2060.75,0.0085
2060.50,0.0084
2060.25,0.0084
2060.00,0.0084
2059.75,0.0084
2059.50,0.0084
2059.25,0.0083
2059.00,0.0082
2058.75,0.0080
2058.50,0.0079
2058.25,0.0078
2058.00,0.0077
2057.75,0.0076
2057.50,0.0074
2057.25,0.0074
2057.00,0.0074
2056.75,0.0075
2056.50,0.0077
2056.25,0.0079
2056.00,0.0081
2055.75,0.0081
2055.50,0.0080
2055.25,0.0079
2055.00,0.0078
2054.75,0.0078
2054.50,0.0077
2054.25,0.0077
2054.00,0.0076
2053.75,0.0075
2053.50,0.0076
2053.25,0.0077
2053.00,0.0078
2052.75,0.0078
2052.50,0.0078
2052.25,0.0076
2052.00,0.0075
2051.75,0.0074
2051.50,0.0074
2051.25,0.0074
2051.00,0.0075
2050.75,0.0075
2050.50,0.0075
2050.25,0.0073
2050.00,0.0071
2049.75,0.0068
2049.50,0.0065
2049.25,0.0063
2049.00,0.0062
2048.75,0.0062
2048.50,0.0063
2048.25,0.0064
2048.00,0.0064
2047.75,0.0063
2047.50,0.0062
2047.25,0.0060
2047.00,0.0059
2046.75,0.0059
2046.50,0.0059
2046.25,0.0060
2046.00,0.0060
2045.75,0.0060
2045.50,0.0060
2045.25,0.0060
2045.00,0.0059
2044.75,0.0059
2044.50,0.0059
2044.25,0.0059
2044.00,0.0058
2043.75,0.0058
2043.50,0.0057
2043.25,0.0056
2043.00,0.0056
2042.75,0.0055
2042.50,0.0056
2042.25,0.0057
2042.00,0.0058
2041.75,0.0058
2041.50,0.0057
2041.25,0.0055
2041.00,0.0052
2040.75,0.0050
2040.50,0.0049
2040.25,0.0049
2040.00,0.0050
2039.75,0.0050
2039.50,0.0050
2039.25,0.0049
2039.00,0.0050
2038.75,0.0050
2038.50,0.0051
2038.25,0.0052
2038.00,0.0052
2037.75,0.0051
2037.50,0.0051
2037.25,0.0051
2037.00,0.0051
2036.75,0.0052
2036.50,0.0053
2036.25,0.0053
2036.00,0.0052
2035.75,0.0050
2035.50,0.0047
2035.25,0.0045
2035.00,0.0043
2034.75,0.0042
2034.50,0.0043
2034.25,0.0044
2034.00,0.0044
2033.75,0.0044
2033.50,0.0042
2033.25,0.0041
2033.00,0.0040
2032.75,0.0041
2032.50,0.0043
2032.25,0.0046
2032.00,0.0047
2031.75,0.0047
2031.50,0.0047
2031.25,0.0046
2031.00,0.0044
2030.75,0.0043
2030.50,0.0041
2030.25,0.0039
2030.00,0.0038
2029.75,0.0038
2029.50,0.0038
2029.25,0.0038
2029.00,0.0038
2028.75,0.0037
2028.50,0.0037
2028.25,0.0037
2028.00,0.0038
2027.75,0.0039
2027.50,0.0039
2027.25,0.0040
2027.00,0.0041
2026.75,0.0042
2026.50,0.0045
2026.25,0.0047
2026.00,0.0049
2025.75,0.0049
2025.50,0.0049
2025.25,0.0047
2025.00,0.0044
2024.75,0.0041
2024.50,0.0038
2024.25,0.0037
2024.00,0.0038
2023.75,0.0040
2023.50,0.0043
2023.25,0.0045
2023.00,0.0046
2022.75,0.0047
2022.50,0.0047
2022.25,0.0046
2022.00,0.0044
2021.75,0.0043
2021.50,0.0042
2021.25,0.0043
2021.00,0.0044
2020.75,0.0046
2020.50,0.0047
2020.25,0.0047
2020.00,0.0048
2019.75,0.0048
2019.50,0.0049
2019.25,0.0049
2019.00,0.0048
2018.75,0.0046
2018.50,0.0045
2018.25,0.0043
2018.00,0.0042
2017.75,0.0042
2017.50,0.0043
2017.25,0.0044
2017.00,0.0044
2016.75,0.0044
2016.50,0.0044
2016.25,0.0045
2016.00,0.0046
2015.75,0.0048
2015.50,0.0048
2015.25,0.0048
2015.00,0.0047
2014.75,0.0045
2014.50,0.0044
2014.25,0.0044
2014.00,0.0044
2013.75,0.0045
2013.50,0.0047
2013.25,0.0049
2013.00,0.0050
2012.75,0.0051
2012.50,0.0052
2012.25,0.0053
2012.00,0.0053
2011.75,0.0053
2011.50,0.0052
2011.25,0.0051
2011.00,0.0050
2010.75,0.0050
2010.50,0.0051
2010.25,0.0052
2010.00,0.0054
2009.75,0.0054
2009.50,0.0054
2009.25,0.0054
2009.00,0.0052
2008.75,0.0051
2008.50,0.0050
2008.25,0.0051
2008.00,0.0053
2007.75,0.0055
2007.50,0.0058
2007.25,0.0059
2007.00,0.0059
2006.75,0.0058
2006.50,0.0056
2006.25,0.0055
2006.00,0.0054
2005.75,0.0053
2005.50,0.0053
2005.25,0.0053
2005.00,0.0055
2004.75,0.0058
2004.50,0.0062
2004.25,0.0066
2004.00,0.0069
2003.75,0.0070
2003.50,0.0069
2003.25,0.0067
2003.00,0.0065
2002.75,0.0063
2002.50,0.0061
2002.25,0.0061
2002.00,0.0062
2001.75,0.0064
2001.50,0.0066
2001.25,0.0067
2001.00,0.0066
2000.75,0.0065
2000.50,0.0064
2000.25,0.0063
2000.00,0.0062
1999.75,0.0062
1999.50,0.0063
1999.25,0.0065
1999.00,0.0067
1998.75,0.0068
1998.50,0.0068
1998.25,0.0068
1998.00,0.0068
1997.75,0.0068
1997.50,0.0068
1997.25,0.0069
1997.00,0.0071
1996.75,0.0073
1996.50,0.0075
1996.25,0.0076
1996.00,0.0076
1995.75,0.0075
1995.50,0.0074
1995.25,0.0073
1995.00,0.0073
1994.75,0.0073
1994.50,0.0074
1994.25,0.0075
1994.00,0.0075
1993.75,0.0075
1993.50,0.0074
1993.25,0.0073
1993.00,0.0072
1992.75,0.0072
1992.50,0.0073
1992.25,0.0074
1992.00,0.0074
1991.75,0.0073
1991.50,0.0071
1991.25,0.0069
1991.00,0.0069
1990.75,0.0070
1990.50,0.0072
1990.25,0.0073
1990.00,0.0073
1989.75,0.0072
1989.50,0.0070
1989.25,0.0069
1989.00,0.0068
1988.75,0.0068
1988.50,0.0069
1988.25,0.0070
1988.00,0.0071
1987.75,0.0072
1987.50,0.0073
1987.25,0.0074
1987.00,0.0076
1986.75,0.0077
1986.50,0.0078
1986.25,0.0078
1986.00,0.0076
1985.75,0.0075
1985.50,0.0074
1985.25,0.0074
1985.00,0.0074
1984.75,0.0074
1984.50,0.0073
1984.25,0.0072
1984.00,0.0070
1983.75,0.0069
1983.50,0.0070
1983.25,0.0072
1983.00,0.0074
1982.75,0.0075
1982.50,0.0076
1982.25,0.0075
1982.00,0.0075
1981.75,0.0074
1981.50,0.0073
1981.25,0.0072
1981.00,0.0072
1980.75,0.0071
1980.50,0.0069
1980.25,0.0068
1980.00,0.0067
1979.75,0.0067
1979.50,0.0068
1979.25,0.0069
1979.00,0.0067
1978.75,0.0065
1978.50,0.0063
1978.25,0.0062
1978.00,0.0062
1977.75,0.0063
1977.50,0.0064
1977.25,0.0065
1977.00,0.0066
1976.75,0.0066
1976.50,0.0066
1976.25,0.0066
1976.00,0.0068
1975.75,0.0070
1975.50,0.0071
1975.25,0.0072
1975.00,0.0071
1974.75,0.0069
1974.50,0.0067
1974.25,0.0065
1974.00,0.0064
1973.75,0.0063
1973.50,0.0064
1973.25,0.0065
1973.00,0.0066
1972.75,0.0066
1972.50,0.0066
1972.25,0.0066
1972.00,0.0066
1971.75,0.0066
1971.50,0.0067
1971.25,0.0069
1971.00,0.0071
1970.75,0.0074
1970.50,0.0076
1970.25,0.0078
1970.00,0.0078
1969.75,0.0076
1969.50,0.0073
1969.25,0.0071
1969.00,0.0070
1968.75,0.0071
1968.50,0.0072
1968.25,0.0074
1968.00,0.0075
1967.75,0.0075
1967.50,0.0075
1967.25,0.0074
1967.00,0.0073
1966.75,0.0073
1966.50,0.0073
1966.25,0.0073
1966.00,0.0073
1965.75,0.0073
1965.50,0.0073
1965.25,0.0073
1965.00,0.0073
1964.75,0.0074
1964.50,0.0075
1964.25,0.0077
1964.00,0.0079
1963.75,0.0081
1963.50,0.0083
1963.25,0.0083
1963.00,0.0084
1962.75,0.0083
1962.50,0.0083
1962.25,0.0082
1962.00,0.0080
1961.75,0.0080
1961.50,0.0079
1961.25,0.0080
1961.00,0.0080
1960.75,0.0080
1960.50,0.0080
1960.25,0.0079
1960.00,0.0079
1959.75,0.0079
1959.50,0.0081
1959.25,0.0084
1959.00,0.0086
1958.75,0.0086
1958.50,0.0086
1958.25,0.0085
1958.00,0.0084
1957.75,0.0084
1957.50,0.0085
1957.25,0.0087
1957.00,0.0089
1956.75,0.0092
1956.50,0.0093
1956.25,0.0094
1956.00,0.0094
1955.75,0.0094
1955.50,0.0094
1955.25,0.0094
1955.00,0.0094
1954.75,0.0093
1954.50,0.0094
1954.25,0.0094
1954.00,0.0096
1953.75,0.0096
1953.50,0.0097
1953.25,0.0096
1953.00,0.0095
1952.75,0.0094
1952.50,0.0093
1952.25,0.0093
1952.00,0.0093
1951.75,0.0094
1951.50,0.0094
1951.25,0.0095
1951.00,0.0095
1950.75,0.0096
1950.50,0.0097
1950.25,0.0098
1950.00,0.0098
1949.75,0.0100
1949.50,0.0101
1949.25,0.0103
1949.00,0.0105
1948.75,0.0106
1948.50,0.0106
1948.25,0.0105
1948.00,0.0103
1947.75,0.0103
1947.50,0.0104
1947.25,0.0106
1947.00,0.0106
1946.75,0.0105
1946.50,0.0104
1946.25,0.0103
1946.00,0.0103
1945.75,0.0104
1945.50,0.0106
1945.25,0.0106
1945.00,0.0105
1944.75,0.0104
1944.50,0.0102
1944.25,0.0102
1944.00,0.0103
1943.75,0.0105
1943.50,0.0107
1943.25,0.0108
1943.00,0.0108
1942.75,0.0107
1942.50,0.0106
1942.25,0.0105
1942.00,0.0104
1941.75,0.0105
1941.50,0.0105
1941.25,0.0105
1941.00,0.0105
1940.75,0.0106
1940.50,0.0107
1940.25,0.0107
1940.00,0.0108
1939.75,0.0109
1939.50,0.0109
1939.25,0.0110
1939.00,0.0111
1938.75,0.0111
1938.50,0.0111
1938.25,0.0112
1938.00,0.0112
1937.75,0.0112
1937.50,0.0112
1937.25,0.0113
1937.00,0.0112
1936.75,0.0111
1936.50,0.0109
1936.25,0.0108
1936.00,0.0107
1935.75,0.0108
1935.50,0.0109
1935.25,0.0111
1935.00,0.0112
1934.75,0.0112
1934.50,0.0113
1934.25,0.0113
1934.00,0.0114
1933.75,0.0114
1933.50,0.0114
1933.25,0.0112
1933.00,0.0111
1932.75,0.0109
1932.50,0.0109
1932.25,0.0110
1932.00,0.0111
1931.75,0.0113
1931.50,0.0115
1931.25,0.0116
1931.00,0.0116
1930.75,0.0116
1930.50,0.0115
1930.25,0.0115
1930.00,0.0115
1929.75,0.0115
1929.50,0.0116
1929.25,0.0116
1929.00,0.0116
1928.75,0.0116
1928.50,0.0114
1928.25,0.0113
1928.00,0.0112
1927.75,0.0111
1927.50,0.0112
1927.25,0.0114
1927.00,0.0116
1926.75,0.0118
1926.50,0.0119
1926.25,0.0119
1926.00,0.0119
1925.75,0.0119
1925.50,0.0119
1925.25,0.0120
1925.00,0.0119
1924.75,0.0119
1924.50,0.0119
1924.25,0.0119
1924.00,0.0120
1923.75,0.0121
1923.50,0.0121
1923.25,0.0120
1923.00,0.0119
1922.75,0.0118
1922.50,0.0118
1922.25,0.0118
1922.00,0.0119
1921.75,0.0120
1921.50,0.0121
1921.25,0.0122
1921.00,0.0122
1920.75,0.0122
1920.50,0.0121
1920.25,0.0121
1920.00,0.0120
1919.75,0.0120
1919.50,0.0120
1919.25,0.0120
1919.00,0.0121
1918.75,0.0121
1918.50,0.0122
1918.25,0.0123
1918.00,0.0123
1917.75,0.0122
1917.50,0.0122
1917.25,0.0122
1917.00,0.0122
1916.75,0.0122
1916.50,0.0122
1916.25,0.0122
1916.00,0.0122
1915.75,0.0121
1915.50,0.0121
1915.25,0.0122
1915.00,0.0123
1914.75,0.0124
1914.50,0.0124
1914.25,0.0125
1914.00,0.0125
1913.75,0.0124
1913.50,0.0124
1913.25,0.0124
1913.00,0.0124
1912.75,0.0124
1912.50,0.0124
1912.25,0.0124
1912.00,0.0123
1911.75,0.0123
1911.50,0.0123
1911.25,0.0124
1911.00,0.0124
1910.75,0.0124
1910.50,0.0124
1910.25,0.0124
1910.00,0.0124
1909.75,0.0124
1909.50,0.0124
1909.25,0.0124
1909.00,0.0125
1908.75,0.0126
1908.50,0.0126
1908.25,0.0126
1908.00,0.0125
1907.75,0.0124
1907.50,0.0123
1907.25,0.0122
1907.00,0.0122
1906.75,0.0122
1906.50,0.0123
1906.25,0.0123
1906.00,0.0124
1905.75,0.0124
1905.50,0.0124
1905.25,0.0124
1905.00,0.0123
1904.75,0.0123
1904.50,0.0123
1904.25,0.0123
1904.00,0.0125
1903.75,0.0126
1903.50,0.0128
1903.25,0.0128
1903.00,0.0128
1902.75,0.0127
1902.50,0.0126
1902.25,0.0125
1902.00,0.0125
1901.75,0.0125
1901.50,0.0126
1901.25,0.0126
1901.00,0.0126
1900.75,0.0126
1900.50,0.0127
1900.25,0.0127
1900.00,0.0128
1899.75,0.0127
1899.50,0.0127
1899.25,0.0127
1899.00,0.0127
1898.75,0.0128
1898.50,0.0129
1898.25,0.0130
1898.00,0.0130
1897.75,0.0130
1897.50,0.0130
1897.25,0.0130
1897.00,0.0130
1896.75,0.0129
1896.50,0.0129
1896.25,0.0128
1896.00,0.0128
1895.75,0.0128
1895.50,0.0127
1895.25,0.0125
1895.00,0.0125
1894.75,0.0126
1894.50,0.0127
1894.25,0.0129
1894.00,0.0131
1893.75,0.0131
1893.50,0.0131
1893.25,0.0131
1893.00,0.0130
1892.75,0.0130
1892.50,0.0130
1892.25,0.0130
1892.00,0.0131
1891.75,0.0132
1891.50,0.0132
1891.25,0.0132
1891.00,0.0132
1890.75,0.0132
1890.50,0.0131
1890.25,0.0131
1890.00,0.0130
1889.75,0.0130
1889.50,0.0130
1889.25,0.0131
1889.00,0.0132
1888.75,0.0132
1888.50,0.0132
1888.25,0.0131
1888.00,0.0131
1887.75,0.0131
1887.50,0.0132
1887.25,0.0132
1887.00,0.0133
1886.75,0.0133
1886.50,0.0133
1886.25,0.0134
1886.00,0.0134
1885.75,0.0134
1885.50,0.0134
1885.25,0.0134
1885.00,0.0134
1884.75,0.0134
1884.50,0.0134
1884.25,0.0135
1884.00,0.0134
1883.75,0.0134
1883.50,0.0133
1883.25,0.0133
1883.00,0.0133
1882.75,0.0134
1882.50,0.0135
1882.25,0.0135
1882.00,0.0136
1881.75,0.0136
1881.50,0.0135
1881.25,0.0134
1881.00,0.0134
1880.75,0.0134
1880.50,0.0134
1880.25,0.0134
1880.00,0.0135
1879.75,0.0135
1879.50,0.0136
1879.25,0.0136
1879.00,0.0135
1878.75,0.0135
1878.50,0.0134
1878.25,0.0134
1878.00,0.0135
1877.75,0.0135
1877.50,0.0135
1877.25,0.0135
1877.00,0.0134
1876.75,0.0134
1876.50,0.0134
1876.25,0.0134
1876.00,0.0134
1875.75,0.0135
1875.50,0.0135
1875.25,0.0136
1875.00,0.0138
1874.75,0.0139
1874.50,0.0140
1874.25,0.0139
1874.00,0.0139
1873.75,0.0138
1873.50,0.0137
1873.25,0.0136
1873.00,0.0135
1872.75,0.0134
1872.50,0.0134
1872.25,0.0135
1872.00,0.0136
1871.75,0.0137
1871.50,0.0138
1871.25,0.0139
1871.00,0.0140
1870.75,0.0141
1870.50,0.0140
1870.25,0.0140
1870.00,0.0139
1869.75,0.0138
1869.50,0.0136
1869.25,0.0135
1869.00,0.0135
1868.75,0.0136
1868.50,0.0137
1868.25,0.0139
1868.00,0.0139
1867.75,0.0139
1867.50,0.0139
1867.25,0.0138
1867.00,0.0138
1866.75,0.0138
1866.50,0.0138
1866.25,0.0137
1866.00,0.0137
1865.75,0.0138
1865.50,0.0138
1865.25,0.0138
1865.00,0.0138
1864.75,0.0139
1864.50,0.0139
1864.25,0.0139
1864.00,0.0140
1863.75,0.0141
1863.50,0.0141
1863.25,0.0142
1863.00,0.0142
1862.75,0.0141
1862.50,0.0141
1862.25,0.0141
1862.00,0.0141
1861.75,0.0141
1861.50,0.0140
1861.25,0.0139
1861.00,0.0139
1860.75,0.0138
1860.50,0.0138
1860.25,0.0138
1860.00,0.0138
1859.75,0.0139
1859.50,0.0140
1859.25,0.0141
1859.00,0.0142
1858.75,0.0141
1858.50,0.0140
1858.25,0.0139
1858.00,0.0139
1857.75,0.0139
1857.50,0.0139
1857.25,0.0139
1857.00,0.0140
1856.75,0.0140
1856.50,0.0141
1856.25,0.0142
1856.00,0.0143
1855.75,0.0143
1855.50,0.0144
1855.25,0.0143
1855.00,0.0143
1854.75,0.0143
1854.50,0.0142
1854.25,0.0142
1854.00,0.0142
1853.75,0.0142
1853.50,0.0141
1853.25,0.0141
1853.00,0.0141
1852.75,0.0141
1852.50,0.0141
1852.25,0.0142
1852.00,0.0142
1851.75,0.0143
1851.50,0.0144
1851.25,0.0144
1851.00,0.0144
1850.75,0.0144
1850.50,0.0143
1850.25,0.0142
1850.00,0.0142
1849.75,0.0142
1849.50,0.0142
1849.25,0.0142
1849.00,0.0142
1848.75,0.0143
1848.50,0.0143
1848.25,0.0143
1848.00,0.0143
1847.75,0.0142
1847.50,0.0142
1847.25,0.0142
1847.00,0.0142
1846.75,0.0142
1846.50,0.0142
1846.25,0.0142
1846.00,0.0142
1845.75,0.0143
1845.50,0.0143
1845.25,0.0144
1845.00,0.0146
1844.75,0.0147
1844.50,0.0148
1844.25,0.0149
1844.00,0.0147
1843.75,0.0146
1843.50,0.0145
1843.25,0.0144
1843.00,0.0144
1842.75,0.0144
1842.50,0.0144
1842.25,0.0144
1842.00,0.0145
1841.75,0.0145
1841.50,0.0145
1841.25,0.0144
1841.00,0.0144
1840.75,0.0144
1840.50,0.0145
1840.25,0.0145
1840.00,0.0145
1839.75,0.0145
1839.50,0.0145
1839.25,0.0144
1839.00,0.0144
1838.75,0.0144
1838.50,0.0144
1838.25,0.0145
1838.00,0.0145
1837.75,0.0145
1837.50,0.0145
1837.25,0.0146
1837.00,0.0147
1836.75,0.0147
1836.50,0.0146
1836.25,0.0146
1836.00,0.0146
1835.75,0.0146
1835.50,0.0147
1835.25,0.0147
1835.00,0.0147
1834.75,0.0147
1834.50,0.0147
1834.25,0.0147
1834.00,0.0146
1833.75,0.0147
1833.50,0.0147
1833.25,0.0147
1833.00,0.0147
1832.75,0.0146
1832.50,0.0146
1832.25,0.0146
1832.00,0.0146
1831.75,0.0147
1831.50,0.0147
1831.25,0.0147
1831.00,0.0148
1830.75,0.0148
1830.50,0.0148
1830.25,0.0148
1830.00,0.0149
1829.75,0.0150
1829.50,0.0150
1829.25,0.0149
1829.00,0.0148
1828.75,0.0147
1828.50,0.0146
1828.25,0.0146
1828.00,0.0147
1827.75,0.0147
1827.50,0.0148
1827.25,0.0149
1827.00,0.0149
1826.75,0.0149
1826.50,0.0149
1826.25,0.0149
1826.00,0.0149
1825.75,0.0149
1825.50,0.0149
1825.25,0.0148
1825.00,0.0147
1824.75,0.0147
1824.50,0.0148
1824.25,0.0149
1824.00,0.0149
1823.75,0.0150
1823.50,0.0150
1823.25,0.0150
1823.00,0.0150
1822.75,0.0150
1822.50,0.0149
1822.25,0.0149
1822.00,0.0149
1821.75,0.0149
1821.50,0.0149
1821.25,0.0149
1821.00,0.0150
1820.75,0.0151
1820.50,0.0151
1820.25,0.0151
1820.00,0.0151
1819.75,0.0150
1819.50,0.0150
1819.25,0.0150
1819.00,0.0149
1818.75,0.0150
1818.50,0.0150
1818.25,0.0150
1818.00,0.0150
1817.75,0.0150
1817.50,0.0150
1817.25,0.0150
1817.00,0.0150
1816.75,0.0150
1816.50,0.0151
1816.25,0.0151
1816.00,0.0152
1815.75,0.0152
1815.50,0.0153
1815.25,0.0153
1815.00,0.0153
1814.75,0.0153
1814.50,0.0152
1814.25,0.0152
1814.00,0.0152
1813.75,0.0153
1813.50,0.0153
1813.25,0.0153
1813.00,0.0153
1812.75,0.0153
1812.50,0.0153
1812.25,0.0153
1812.00,0.0153
1811.75,0.0153
1811.50,0.0154
1811.25,0.0154
1811.00,0.0154
1810.75,0.0155
1810.50,0.0155
1810.25,0.0155
1810.00,0.0155
1809.75,0.0156
1809.50,0.0156
1809.25,0.0156
1809.00,0.0156
1808.75,0.0156
1808.50,0.0156
1808.25,0.0156
1808.00,0.0157
1807.75,0.0156
1807.50,0.0156
1807.25,0.0155
1807.00,0.0155
1806.75,0.0156
1806.50,0.0157
1806.25,0.0157
1806.00,0.0158
1805.75,0.0158
1805.50,0.0157
1805.25,0.0158
1805.00,0.0158
1804.75,0.0158
1804.50,0.0158
1804.25,0.0158
1804.00,0.0157
1803.75,0.0157
1803.50,0.0156
1803.25,0.0156
1803.00,0.0156
1802.75,0.0156
1802.50,0.0156
1802.25,0.0156
1802.00,0.0156
1801.75,0.0157
1801.50,0.0157
1801.25,0.0157
1801.00,0.0158
1800.75,0.0158
1800.50,0.0158
1800.25,0.0158
1800.00,0.0158
1799.75,0.0158
1799.50,0.0159
1799.25,0.0159
1799.00,0.0159
1798.75,0.0159
1798.50,0.0159
1798.25,0.0158
1798.00,0.0158
1797.75,0.0158
1797.50,0.0159
1797.25,0.0159
1797.00,0.0159
1796.75,0.0160
1796.50,0.0160
1796.25,0.0160
1796.00,0.0159
1795.75,0.0159
1795.50,0.0159
1795.25,0.0159
1795.00,0.0160
1794.75,0.0160
1794.50,0.0160
1794.25,0.0160
1794.00,0.0160
1793.75,0.0160
1793.50,0.0159
1793.25,0.0159
1793.00,0.0159
1792.75,0.0158
1792.50,0.0158
1792.25,0.0159
1792.00,0.0160
1791.75,0.0161
1791.50,0.0162
1791.25,0.0162
1791.00,0.0161
1790.75,0.0160
1790.50,0.0160
1790.25,0.0159
1790.00,0.0159
1789.75,0.0160
1789.50,0.0160
1789.25,0.0160
1789.00,0.0160
1788.75,0.0160
1788.50,0.0160
1788.25,0.0160
1788.00,0.0160
1787.75,0.0160
1787.50,0.0160
1787.25,0.0160
1787.00,0.0161
1786.75,0.0161
1786.50,0.0161
1786.25,0.0161
1786.00,0.0161
1785.75,0.0161
1785.50,0.0160
1785.25,0.0160
1785.00,0.0161
1784.75,0.0161
1784.50,0.0162
1784.25,0.0162
1784.00,0.0162
1783.75,0.0162
1783.50,0.0162
1783.25,0.0162
1783.00,0.0162
1782.75,0.0162
1782.50,0.0162
1782.25,0.0162
1782.00,0.0162
1781.75,0.0163
1781.50,0.0163
1781.25,0.0163
1781.00,0.0163
1780.75,0.0162
1780.50,0.0162
1780.25,0.0161
1780.00,0.0161
1779.75,0.0162
1779.50,0.0162
1779.25,0.0162
1779.00,0.0162
1778.75,0.0162
1778.50,0.0162
1778.25,0.0162
1778.00,0.0163
1777.75,0.0163
1777.50,0.0163
1777.25,0.0162
1777.00,0.0162
1776.75,0.0162
1776.50,0.0162
1776.25,0.0162
1776.00,0.0162
1775.75,0.0162
1775.50,0.0162
1775.25,0.0163
1775.00,0.0163
1774.75,0.0163
1774.50,0.0163
1774.25,0.0163
1774.00,0.0163
1773.75,0.0163
1773.50,0.0162
1773.25,0.0162
1773.00,0.0161
1772.75,0.0160
1772.50,0.0160
1772.25,0.0160
1772.00,0.0161
1771.75,0.0161
1771.50,0.0161
1771.25,0.0161
1771.00,0.0161
1770.75,0.0163
1770.50,0.0164
1770.25,0.0164
1770.00,0.0164
1769.75,0.0164
1769.50,0.0164
1769.25,0.0164
1769.00,0.0164
1768.75,0.0165
1768.50,0.0165
1768.25,0.0165
1768.00,0.0165
1767.75,0.0165
1767.50,0.0165
1767.25,0.0165
1767.00,0.0165
1766.75,0.0165
1766.50,0.0165
1766.25,0.0164
1766.00,0.0164
1765.75,0.0163
1765.50,0.0163
1765.25,0.0163
1765.00,0.0163
1764.75,0.0163
1764.50,0.0163
1764.25,0.0163
1764.00,0.0164
1763.75,0.0164
1763.50,0.0164
1763.25,0.0164
1763.00,0.0164
1762.75,0.0164
1762.50,0.0164
1762.25,0.0164
1762.00,0.0163
1761.75,0.0162
1761.50,0.0162
1761.25,0.0163
1761.00,0.0163
1760.75,0.0163
1760.50,0.0162
1760.25,0.0162
1760.00,0.0163
1759.75,0.0163
1759.50,0.0164
1759.25,0.0164
1759.00,0.0165
1758.75,0.0165
1758.50,0.0165
1758.25,0.0164
1758.00,0.0164
1757.75,0.0164
1757.50,0.0164
1757.25,0.0163
1757.00,0.0163
1756.75,0.0162
1756.50,0.0162
1756.25,0.0162
1756.00,0.0162
1755.75,0.0162
1755.50,0.0162
1755.25,0.0162
1755.00,0.0163
1754.75,0.0163
1754.50,0.0164
1754.25,0.0164
1754.00,0.0164
1753.75,0.0164
1753.50,0.0164
1753.25,0.0164
1753.00,0.0163
1752.75,0.0163
1752.50,0.0163
1752.25,0.0163
1752.00,0.0163
1751.75,0.0163
1751.50,0.0163
1751.25,0.0162
1751.00,0.0162
1750.75,0.0162
1750.50,0.0163
1750.25,0.0163
1750.00,0.0163
1749.75,0.0163
1749.50,0.0163
1749.25,0.0163
1749.00,0.0163
1748.75,0.0163
1748.50,0.0162
1748.25,0.0162
1748.00,0.0163
1747.75,0.0163
1747.50,0.0164
1747.25,0.0164
1747.00,0.0163
1746.75,0.0163
1746.50,0.0163
1746.25,0.0163
1746.00,0.0164
1745.75,0.0164
1745.50,0.0165
1745.25,0.0165
1745.00,0.0165
1744.75,0.0165
1744.50,0.0165
1744.25,0.0165
1744.00,0.0165
1743.75,0.0165
1743.50,0.0164
1743.25,0.0164
1743.00,0.0163
1742.75,0.0163
1742.50,0.0163
1742.25,0.0163
1742.00,0.0163
1741.75,0.0163
1741.50,0.0163
1741.25,0.0163
1741.00,0.0163
1740.75,0.0163
1740.50,0.0163
1740.25,0.0163
1740.00,0.0162
1739.75,0.0161
1739.50,0.0161
1739.25,0.0162
1739.00,0.0162
1738.75,0.0162
1738.50,0.0162
1738.25,0.0163
1738.00,0.0163
1737.75,0.0163
1737.50,0.0164
1737.25,0.0164
1737.00,0.0163
1736.75,0.0163
1736.50,0.0163
1736.25,0.0163
1736.00,0.0164
1735.75,0.0164
1735.50,0.0164
1735.25,0.0165
1735.00,0.0166
1734.75,0.0167
1734.50,0.0167
1734.25,0.0165
1734.00,0.0163
1733.75,0.0160
1733.50,0.0158
1733.25,0.0158
1733.00,0.0159
1732.75,0.0161
1732.50,0.0162
1732.25,0.0163
1732.00,0.0164
1731.75,0.0165
1731.50,0.0165
1731.25,0.0165
1731.00,0.0166
1730.75,0.0166
1730.50,0.0166
1730.25,0.0165
1730.00,0.0165
1729.75,0.0164
1729.50,0.0164
1729.25,0.0164
1729.00,0.0164
1728.75,0.0165
1728.50,0.0165
1728.25,0.0166
1728.00,0.0165
1727.75,0.0165
1727.50,0.0165
1727.25,0.0165
1727.00,0.0165
1726.75,0.0165
1726.50,0.0166
1726.25,0.0166
1726.00,0.0166
1725.75,0.0166
1725.50,0.0166
1725.25,0.0166
1725.00,0.0166
1724.75,0.0166
1724.50,0.0166
1724.25,0.0166
1724.00,0.0166
1723.75,0.0166
1723.50,0.0167
1723.25,0.0167
1723.00,0.0167
1722.75,0.0167
1722.50,0.0167
1722.25,0.0167
1722.00,0.0167
1721.75,0.0167
1721.50,0.0167
1721.25,0.0167
1721.00,0.0167
1720.75,0.0166
1720.50,0.0166
1720.25,0.0166
1720.00,0.0165
1719.75,0.0165
1719.50,0.0165
1719.25,0.0165
1719.00,0.0165
1718.75,0.0165
1718.50,0.0164
1718.25,0.0164
1718.00,0.0164
1717.75,0.0164
1717.50,0.0163
1717.25,0.0163
1717.00,0.0163
1716.75,0.0165
1716.50,0.0166
1716.25,0.0167
1716.00,0.0167
1715.75,0.0167
1715.50,0.0167
1715.25,0.0167
1715.00,0.0166
1714.75,0.0166
1714.50,0.0166
1714.25,0.0166
1714.00,0.0166
1713.75,0.0166
1713.50,0.0166
1713.25,0.0166
1713.00,0.0167
1712.75,0.0167
1712.50,0.0168
1712.25,0.0168
1712.00,0.0168
1711.75,0.0168
1711.50,0.0168
1711.25,0.0167
1711.00,0.0167
1710.75,0.0167
1710.50,0.0167
1710.25,0.0168
1710.00,0.0168
1709.75,0.0167
1709.50,0.0167
1709.25,0.0167
1709.00,0.0167
1708.75,0.0167
1708.50,0.0168
1708.25,0.0168
1708.00,0.0168
1707.75,0.0168
1707.50,0.0168
1707.25,0.0167
1707.00,0.0167
1706.75,0.0167
1706.50,0.0166
1706.25,0.0166
1706.00,0.0166
1705.75,0.0167
1705.50,0.0167
1705.25,0.0167
1705.00,0.0167
1704.75,0.0166
1704.50,0.0166
1704.25,0.0166
1704.00,0.0166
1703.75,0.0167
1703.50,0.0167
1703.25,0.0167
1703.00,0.0167
1702.75,0.0168
1702.50,0.0168
1702.25,0.0168
1702.00,0.0168
1701.75,0.0168
1701.50,0.0168
1701.25,0.0168
1701.00,0.0170
1700.75,0.0174
1700.50,0.0181
1700.25,0.0188
1700.00,0.0180
1699.75,0.0174
1699.50,0.0171
1699.25,0.0169
1699.00,0.0168
1698.75,0.0168
1698.50,0.0168
1698.25,0.0168
1698.00,0.0168
1697.75,0.0167
1697.50,0.0167
1697.25,0.0167
1697.00,0.0167
1696.75,0.0166
1696.50,0.0166
1696.25,0.0166
1696.00,0.0167
1695.75,0.0168
1695.50,0.0168
1695.25,0.0169
1695.00,0.0170
1694.75,0.0170
1694.50,0.0170
1694.25,0.0170
1694.00,0.0170
1693.75,0.0171
1693.50,0.0171
1693.25,0.0170
1693.00,0.0170
1692.75,0.0170
1692.50,0.0170
1692.25,0.0169
1692.00,0.0169
1691.75,0.0169
1691.50,0.0169
1691.25,0.0169
1691.00,0.0170
1690.75,0.0170
1690.50,0.0171
1690.25,0.0171
1690.00,0.0171
1689.75,0.0170
1689.50,0.0170
1689.25,0.0170
1689.00,0.0170
1688.75,0.0170
1688.50,0.0170
1688.25,0.0171
1688.00,0.0171
1687.75,0.0171
1687.50,0.0171
1687.25,0.0171
1687.00,0.0171
1686.75,0.0171
1686.50,0.0171
1686.25,0.0172
1686.00,0.0172
1685.75,0.0171
1685.50,0.0170
1685.25,0.0169
1685.00,0.0169
1684.75,0.0169
1684.50,0.0169
1684.25,0.0166
1684.00,0.0165
1683.75,0.0165
1683.50,0.0166
1683.25,0.0168
1683.00,0.0170
1682.75,0.0171
1682.50,0.0172
1682.25,0.0171
1682.00,0.0170
1681.75,0.0169
1681.50,0.0169
1681.25,0.0169
1681.00,0.0170
1680.75,0.0171
1680.50,0.0171
1680.25,0.0172
1680.00,0.0172
1679.75,0.0172
1679.50,0.0172
1679.25,0.0172
1679.00,0.0172
1678.75,0.0172
1678.50,0.0172
1678.25,0.0172
1678.00,0.0172
1677.75,0.0172
1677.50,0.0172
1677.25,0.0172
1677.00,0.0171
1676.75,0.0171
1676.50,0.0172
1676.25,0.0172
1676.00,0.0172
1675.75,0.0173
1675.50,0.0174
1675.25,0.0173
1675.00,0.0173
1674.75,0.0172
1674.50,0.0172
1674.25,0.0172
1674.00,0.0172
1673.75,0.0172
1673.50,0.0172
1673.25,0.0172
1673.00,0.0172
1672.75,0.0172
1672.50,0.0172
1672.25,0.0172
1672.00,0.0172
1671.75,0.0172
1671.50,0.0173
1671.25,0.0173
1671.00,0.0173
1670.75,0.0173
1670.50,0.0173
1670.25,0.0173
1670.00,0.0173
1669.75,0.0173
1669.50,0.0172
1669.25,0.0172
1669.00,0.0172
1668.75,0.0172
1668.50,0.0172
1668.25,0.0172
1668.00,0.0172
1667.75,0.0172
1667.50,0.0172
1667.25,0.0172
1667.00,0.0173
1666.75,0.0173
1666.50,0.0172
1666.25,0.0172
1666.00,0.0172
1665.75,0.0172
1665.50,0.0172
1665.25,0.0173
1665.00,0.0173
1664.75,0.0174
1664.50,0.0174
1664.25,0.0174
1664.00,0.0174
1663.75,0.0174
1663.50,0.0173
1663.25,0.0172
1663.00,0.0172
1662.75,0.0171
1662.50,0.0172
1662.25,0.0173
1662.00,0.0173
1661.75,0.0173
1661.50,0.0173
1661.25,0.0173
1661.00,0.0173
1660.75,0.0173
1660.50,0.0173
1660.25,0.0173
1660.00,0.0173
1659.75,0.0174
1659.50,0.0175
1659.25,0.0175
1659.00,0.0176
1658.75,0.0175
1658.50,0.0175
1658.25,0.0175
1658.00,0.0175
1657.75,0.0175
1657.50,0.0175
1657.25,0.0174
1657.00,0.0173
1656.75,0.0173
1656.50,0.0172
1656.25,0.0172
1656.00,0.0173
1655.75,0.0174
1655.50,0.0174
1655.25,0.0174
1655.00,0.0174
1654.75,0.0173
1654.50,0.0171
1654.25,0.0169
1654.00,0.0168
1653.75,0.0169
1653.50,0.0172
1653.25,0.0179
1653.00,0.0191
1652.75,0.0194
1652.50,0.0182
1652.25,0.0175
1652.00,0.0173
1651.75,0.0173
1651.50,0.0173
1651.25,0.0174
1651.00,0.0174
1650.75,0.0175
1650.50,0.0175
1650.25,0.0175
1650.00,0.0176
1649.75,0.0176
1649.50,0.0176
1649.25,0.0176
1649.00,0.0176
1648.75,0.0175
1648.50,0.0175
1648.25,0.0174
1648.00,0.0174
1647.75,0.0173
1647.50,0.0173
1647.25,0.0173
1647.00,0.0174
1646.75,0.0175
1646.50,0.0175
1646.25,0.0174
1646.00,0.0173
1645.75,0.0172
1645.50,0.0173
1645.25,0.0174
1645.00,0.0175
1644.75,0.0175
1644.50,0.0175
1644.25,0.0176
1644.00,0.0176
1643.75,0.0176
1643.50,0.0176
1643.25,0.0176
1643.00,0.0176
1642.75,0.0176
1642.50,0.0176
1642.25,0.0177
1642.00,0.0177
1641.75,0.0177
1641.50,0.0177
1641.25,0.0177
1641.00,0.0177
1640.75,0.0177
1640.50,0.0177
1640.25,0.0177
1640.00,0.0177
1639.75,0.0177
1639.50,0.0177
1639.25,0.0177
1639.00,0.0177
1638.75,0.0177
1638.50,0.0177
1638.25,0.0177
1638.00,0.0177
1637.75,0.0177
1637.50,0.0177
1637.25,0.0176
1637.00,0.0176
1636.75,0.0176
1636.50,0.0175
1636.25,0.0174
1636.00,0.0174
1635.75,0.0175
1635.50,0.0176
1635.25,0.0175
1635.00,0.0175
1634.75,0.0176
1634.50,0.0177
1634.25,0.0177
1634.00,0.0177
1633.75,0.0176
1633.50,0.0176
1633.25,0.0176
1633.00,0.0176
1632.75,0.0177
1632.50,0.0177
1632.25,0.0178
1632.00,0.0178
1631.75,0.0179
1631.50,0.0179
1631.25,0.0179
1631.00,0.0179
1630.75,0.0179
1630.50,0.0178
1630.25,0.0178
1630.00,0.0178
1629.75,0.0178
1629.50,0.0178
1629.25,0.0178
1629.00,0.0178
1628.75,0.0178
1628.50,0.0178
1628.25,0.0178
1628.00,0.0178
1627.75,0.0178
1627.50,0.0178
1627.25,0.0179
1627.00,0.0180
1626.75,0.0180
1626.50,0.0180
1626.25,0.0180
1626.00,0.0180
1625.75,0.0180
1625.50,0.0180
1625.25,0.0180
1625.00,0.0180
1624.75,0.0180
1624.50,0.0179
1624.25,0.0179
1624.00,0.0179
1623.75,0.0178
1623.50,0.0178
1623.25,0.0178
1623.00,0.0179
1622.75,0.0180
1622.50,0.0180
1622.25,0.0180
1622.00,0.0180
1621.75,0.0180
1621.50,0.0180
1621.25,0.0180
1621.00,0.0180
1620.75,0.0180
1620.50,0.0180
1620.25,0.0180
1620.00,0.0180
1619.75,0.0180
1619.50,0.0181
1619.25,0.0181
1619.00,0.0182
1618.75,0.0182
1618.50,0.0182
1618.25,0.0182
1618.00,0.0181
1617.75,0.0181
1617.50,0.0180
1617.25,0.0180
1617.00,0.0179
1616.75,0.0180
1616.50,0.0180
1616.25,0.0179
1616.00,0.0179
1615.75,0.0180
1615.50,0.0180
1615.25,0.0180
1615.00,0.0180
1614.75,0.0180
1614.50,0.0180
1614.25,0.0180
1614.00,0.0181
1613.75,0.0181
1613.50,0.0182
1613.25,0.0182
1613.00,0.0182
1612.75,0.0182
1612.50,0.0182
1612.25,0.0182
1612.00,0.0182
1611.75,0.0182
1611.50,0.0182
1611.25,0.0182
1611.00,0.0183
1610.75,0.0183
1610.50,0.0184
1610.25,0.0184
1610.00,0.0184
1609.75,0.0184
1609.50,0.0184
1609.25,0.0184
1609.00,0.0184
1608.75,0.0183
1608.50,0.0183
1608.25,0.0183
1608.00,0.0183
1607.75,0.0183
1607.50,0.0183
1607.25,0.0183
1607.00,0.0184
1606.75,0.0184
1606.50,0.0185
1606.25,0.0185
1606.00,0.0185
1605.75,0.0185
1605.50,0.0185
1605.25,0.0184
1605.00,0.0184
1604.75,0.0184
1604.50,0.0184
1604.25,0.0184
1604.00,0.0184
1603.75,0.0184
1603.50,0.0184
1603.25,0.0184
1603.00,0.0184
1602.75,0.0184
1602.50,0.0185
1602.25,0.0185
1602.00,0.0186
1601.75,0.0186
1601.50,0.0186
1601.25,0.0187
1601.00,0.0187
1600.75,0.0187
1600.50,0.0187
1600.25,0.0187
1600.00,0.0187
1599.75,0.0187
1599.50,0.0187
1599.25,0.0187
1599.00,0.0188
1598.75,0.0188
1598.50,0.0189
1598.25,0.0189
1598.00,0.0190
1597.75,0.0190
1597.50,0.0190
1597.25,0.0191
1597.00,0.0191
1596.75,0.0191
1596.50,0.0191
1596.25,0.0191
1596.00,0.0191
1595.75,0.0191
1595.50,0.0191
1595.25,0.0191
1595.00,0.0190
1594.75,0.0190
1594.50,0.0189
1594.25,0.0188
1594.00,0.0187
1593.75,0.0186
1593.50,0.0186
1593.25,0.0186
1593.00,0.0186
1592.75,0.0186
1592.50,0.0186
1592.25,0.0186
1592.00,0.0186
1591.75,0.0185
1591.50,0.0185
1591.25,0.0185
1591.00,0.0185
1590.75,0.0184
1590.50,0.0184
1590.25,0.0184
1590.00,0.0184
1589.75,0.0184
1589.50,0.0184
1589.25,0.0184
1589.00,0.0184
1588.75,0.0184
1588.50,0.0184
1588.25,0.0184
1588.00,0.0184
1587.75,0.0184
1587.50,0.0184
1587.25,0.0184
1587.00,0.0184
1586.75,0.0184
1586.50,0.0184
1586.25,0.0184
1586.00,0.0184
1585.75,0.0184
1585.50,0.0184
1585.25,0.0184
1585.00,0.0184
1584.75,0.0184
1584.50,0.0184
1584.25,0.0183
1584.00,0.0183
1583.75,0.0183
1583.50,0.0183
1583.25,0.0183
1583.00,0.0183
1582.75,0.0184
1582.50,0.0184
1582.25,0.0184
1582.00,0.0184
1581.75,0.0184
1581.50,0.0184
1581.25,0.0183
1581.00,0.0183
1580.75,0.0183
1580.50,0.0183
1580.25,0.0183
1580.00,0.0183
1579.75,0.0183
1579.50,0.0182
1579.25,0.0182
1579.00,0.0182
1578.75,0.0181
1578.50,0.0181
1578.25,0.0181
1578.00,0.0182
1577.75,0.0183
1577.50,0.0183
1577.25,0.0184
1577.00,0.0184
1576.75,0.0184
1576.50,0.0184
1576.25,0.0185
1576.00,0.0183
1575.75,0.0181
1575.50,0.0180
1575.25,0.0180
1575.00,0.0180
1574.75,0.0180
1574.50,0.0180
1574.25,0.0179
1574.00,0.0180
1573.75,0.0180
1573.50,0.0181
1573.25,0.0181
1573.00,0.0182
1572.75,0.0182
1572.50,0.0182
1572.25,0.0181
1572.00,0.0181
1571.75,0.0181
1571.50,0.0181
1571.25,0.0182
1571.00,0.0182
1570.75,0.0183
1570.50,0.0184
1570.25,0.0185
1570.00,0.0186
1569.75,0.0186
1569.50,0.0186
1569.25,0.0184
1569.00,0.0182
1568.75,0.0180
1568.50,0.0180
1568.25,0.0179
1568.00,0.0179
1567.75,0.0179
1567.50,0.0179
1567.25,0.0180
1567.00,0.0180
1566.75,0.0180
1566.50,0.0180
1566.25,0.0181
1566.00,0.0181
1565.75,0.0182
1565.50,0.0181
1565.25,0.0181
1565.00,0.0180
1564.75,0.0179
1564.50,0.0179
1564.25,0.0179
1564.00,0.0180
1563.75,0.0179
1563.50,0.0179
1563.25,0.0179
1563.00,0.0179
1562.75,0.0180
1562.50,0.0180
1562.25,0.0180
1562.00,0.0180
1561.75,0.0180
1561.50,0.0180
1561.25,0.0180
1561.00,0.0180
1560.75,0.0180
1560.50,0.0181
1560.25,0.0183
1560.00,0.0187
1559.75,0.0189
1559.50,0.0187
1559.25,0.0185
1559.00,0.0183
1558.75,0.0182
1558.50,0.0181
1558.25,0.0180
1558.00,0.0179
1557.75,0.0177
1557.50,0.0177
1557.25,0.0178
1557.00,0.0179
1556.75,0.0178
1556.50,0.0178
1556.25,0.0177
1556.00,0.0177
1555.75,0.0177
1555.50,0.0178
1555.25,0.0178
1555.00,0.0179
1554.75,0.0180
1554.50,0.0181
1554.25,0.0181
1554.00,0.0179
1553.75,0.0178
1553.50,0.0178
1553.25,0.0178
1553.00,0.0178
1552.75,0.0178
1552.50,0.0178
1552.25,0.0178
1552.00,0.0178
1551.75,0.0178
1551.50,0.0178
1551.25,0.0178
1551.00,0.0179
1550.75,0.0179
1550.50,0.0180
1550.25,0.0181
1550.00,0.0182
1549.75,0.0182
1549.50,0.0181
1549.25,0.0180
1549.00,0.0178
1548.75,0.0177
1548.50,0.0177
1548.25,0.0176
1548.00,0.0176
1547.75,0.0177
1547.50,0.0177
1547.25,0.0178
1547.00,0.0178
1546.75,0.0178
1546.50,0.0179
1546.25,0.0179
1546.00,0.0179
1545.75,0.0179
1545.50,0.0178
1545.25,0.0178
1545.00,0.0178
1544.75,0.0178
1544.50,0.0178
1544.25,0.0178
1544.00,0.0178
1543.75,0.0178
1543.50,0.0178
1543.25,0.0178
1543.00,0.0178
1542.75,0.0179
1542.50,0.0179
1542.25,0.0178
1542.00,0.0177
1541.75,0.0176
1541.50,0.0176
1541.25,0.0177
1541.00,0.0177
1540.75,0.0178
1540.50,0.0180
1540.25,0.0181
1540.00,0.0181
1539.75,0.0179
1539.50,0.0176
1539.25,0.0173
1539.00,0.0172
1538.75,0.0173
1538.50,0.0175
1538.25,0.0176
1538.00,0.0177
1537.75,0.0177
1537.50,0.0176
1537.25,0.0176
1537.00,0.0176
1536.75,0.0176
1536.50,0.0177
1536.25,0.0177
1536.00,0.0178
1535.75,0.0178
1535.50,0.0178
1535.25,0.0178
1535.00,0.0177
1534.75,0.0177
1534.50,0.0177
1534.25,0.0176
1534.00,0.0177
1533.75,0.0177
1533.50,0.0176
1533.25,0.0176
1533.00,0.0176
1532.75,0.0176
1532.50,0.0177
1532.25,0.0177
1532.00,0.0177
1531.75,0.0177
1531.50,0.0177
1531.25,0.0177
1531.00,0.0176
1530.75,0.0176
1530.50,0.0176
1530.25,0.0176
1530.00,0.0176
1529.75,0.0176
1529.50,0.0177
1529.25,0.0177
1529.00,0.0177
1528.75,0.0177
1528.50,0.0177
1528.25,0.0176
1528.00,0.0176
1527.75,0.0176
1527.50,0.0177
1527.25,0.0177
1527.00,0.0178
1526.75,0.0178
1526.50,0.0178
1526.25,0.0177
1526.00,0.0177
1525.75,0.0176
1525.50,0.0176
1525.25,0.0177
1525.00,0.0177
1524.75,0.0178
1524.50,0.0178
1524.25,0.0177
1524.00,0.0177
1523.75,0.0177
1523.50,0.0176
1523.25,0.0176
1523.00,0.0175
1522.75,0.0175
1522.50,0.0174
1522.25,0.0174
1522.00,0.0174
1521.75,0.0175
1521.50,0.0175
1521.25,0.0177
1521.00,0.0178
1520.75,0.0178
1520.50,0.0177
1520.25,0.0176
1520.00,0.0176
1519.75,0.0176
1519.50,0.0176
1519.25,0.0176
1519.00,0.0176
1518.75,0.0176
1518.50,0.0177
1518.25,0.0177
1518.00,0.0177
1517.75,0.0177
1517.50,0.0177
1517.25,0.0177
1517.00,0.0178
1516.75,0.0178
1516.50,0.0178
1516.25,0.0178
1516.00,0.0178
1515.75,0.0178
1515.50,0.0178
1515.25,0.0178
1515.00,0.0178
1514.75,0.0178
1514.50,0.0178
1514.25,0.0177
1514.00,0.0177
1513.75,0.0177
1513.50,0.0177
1513.25,0.0177
1513.00,0.0177
1512.75,0.0177
1512.50,0.0178
1512.25,0.0179
1512.00,0.0179
1511.75,0.0180
1511.50,0.0180
1511.25,0.0180
1511.00,0.0179
1510.75,0.0179
1510.50,0.0179
1510.25,0.0179
1510.00,0.0179
1509.75,0.0179
1509.50,0.0179
1509.25,0.0178
1509.00,0.0177
1508.75,0.0177
1508.50,0.0177
1508.25,0.0177
1508.00,0.0178
1507.75,0.0177
1507.50,0.0176
1507.25,0.0175
1507.00,0.0175
1506.75,0.0175
1506.50,0.0176
1506.25,0.0177
1506.00,0.0178
1505.75,0.0179
1505.50,0.0180
1505.25,0.0179
1505.00,0.0179
1504.75,0.0178
1504.50,0.0177
1504.25,0.0176
1504.00,0.0176
1503.75,0.0175
1503.50,0.0175
1503.25,0.0176
1503.00,0.0176
1502.75,0.0176
1502.50,0.0176
1502.25,0.0177
1502.00,0.0177
1501.75,0.0177
1501.50,0.0177
1501.25,0.0177
1501.00,0.0176
1500.75,0.0176
1500.50,0.0176
1500.25,0.0176
1500.00,0.0176
1499.75,0.0176
1499.50,0.0175
1499.25,0.0175
1499.00,0.0175
1498.75,0.0175
1498.50,0.0176
1498.25,0.0176
1498.00,0.0177
1497.75,0.0176
1497.50,0.0176
1497.25,0.0176
1497.00,0.0175
1496.75,0.0174
1496.50,0.0173
1496.25,0.0172
1496.00,0.0173
1495.75,0.0174
1495.50,0.0176
1495.25,0.0176
1495.00,0.0177
1494.75,0.0177
1494.50,0.0176
1494.25,0.0176
1494.00,0.0176
1493.75,0.0176
1493.50,0.0176
1493.25,0.0176
1493.00,0.0176
1492.75,0.0176
1492.50,0.0176
1492.25,0.0176
1492.00,0.0176
1491.75,0.0177
1491.50,0.0177
1491.25,0.0177
1491.00,0.0177
1490.75,0.0177
1490.50,0.0177
1490.25,0.0177
1490.00,0.0177
1489.75,0.0178
1489.50,0.0179
1489.25,0.0179
1489.00,0.0179
1488.75,0.0179
1488.50,0.0178
1488.25,0.0177
1488.00,0.0176
1487.75,0.0176
1487.50,0.0176
1487.25,0.0177
1487.00,0.0178
1486.75,0.0179
1486.50,0.0180
1486.25,0.0180
1486.00,0.0180
1485.75,0.0179
1485.50,0.0178
1485.25,0.0178
1485.00,0.0178
1484.75,0.0178
1484.50,0.0178
1484.25,0.0178
1484.00,0.0178
1483.75,0.0178
1483.50,0.0178
1483.25,0.0178
1483.00,0.0178
1482.75,0.0178
1482.50,0.0178
1482.25,0.0177
1482.00,0.0177
1481.75,0.0177
1481.50,0.0178
1481.25,0.0178
1481.00,0.0179
1480.75,0.0179
1480.50,0.0179
1480.25,0.0178
1480.00,0.0178
1479.75,0.0178
1479.50,0.0178
1479.25,0.0178
1479.00,0.0178
1478.75,0.0178
1478.50,0.0179
1478.25,0.0179
1478.00,0.0179
1477.75,0.0179
1477.50,0.0179
1477.25,0.0179
1477.00,0.0179
1476.75,0.0179
1476.50,0.0178
1476.25,0.0176
1476.00,0.0176
1475.75,0.0176
1475.50,0.0177
1475.25,0.0177
1475.00,0.0177
1474.75,0.0177
1474.50,0.0177
1474.25,0.0177
1474.00,0.0177
1473.75,0.0177
1473.50,0.0176
1473.25,0.0176
1473.00,0.0175
1472.75,0.0175
1472.50,0.0175
1472.25,0.0176
1472.00,0.0177
1471.75,0.0178
1471.50,0.0179
1471.25,0.0179
1471.00,0.0179
1470.75,0.0179
1470.50,0.0179
1470.25,0.0179
1470.00,0.0179
1469.75,0.0179
1469.50,0.0179
1469.25,0.0179
1469.00,0.0179
1468.75,0.0180
1468.50,0.0180
1468.25,0.0180
1468.00,0.0180
1467.75,0.0180
1467.50,0.0180
1467.25,0.0181
1467.00,0.0181
1466.75,0.0180
1466.50,0.0180
1466.25,0.0180
1466.00,0.0179
1465.75,0.0179
1465.50,0.0179
1465.25,0.0180
1465.00,0.0181
1464.75,0.0182
1464.50,0.0183
1464.25,0.0183
1464.00,0.0183
1463.75,0.0182
1463.50,0.0183
1463.25,0.0183
1463.00,0.0183
1462.75,0.0184
1462.50,0.0185
1462.25,0.0185
1462.00,0.0186
1461.75,0.0186
1461.50,0.0186
1461.25,0.0186
1461.00,0.0186
1460.75,0.0186
1460.50,0.0186
1460.25,0.0186
1460.00,0.0186
1459.75,0.0187
1459.50,0.0188
1459.25,0.0189
1459.00,0.0190
1458.75,0.0190
1458.50,0.0190
1458.25,0.0189
1458.00,0.0189
1457.75,0.0189
1457.50,0.0189
1457.25,0.0189
1457.00,0.0191
1456.75,0.0193
1456.50,0.0195
1456.25,0.0196
1456.00,0.0196
1455.75,0.0195
1455.50,0.0195
1455.25,0.0195
1455.00,0.0195
1454.75,0.0195
1454.50,0.0195
1454.25,0.0195
1454.00,0.0196
1453.75,0.0196
1453.50,0.0197
1453.25,0.0198
1453.00,0.0198
1452.75,0.0199
1452.50,0.0199
1452.25,0.0199
1452.00,0.0199
1451.75,0.0200
1451.50,0.0200
1451.25,0.0201
1451.00,0.0202
1450.75,0.0204
1450.50,0.0204
1450.25,0.0205
1450.00,0.0205
1449.75,0.0204
1449.50,0.0204
1449.25,0.0204
1449.00,0.0204
1448.75,0.0204
1448.50,0.0205
1448.25,0.0206
1448.00,0.0207
1447.75,0.0208
1447.50,0.0209
1447.25,0.0209
1447.00,0.0209
1446.75,0.0209
1446.50,0.0209
1446.25,0.0209
1446.00,0.0209
1445.75,0.0209
1445.50,0.0209
1445.25,0.0209
1445.00,0.0209
1444.75,0.0209
1444.50,0.0209
1444.25,0.0209
1444.00,0.0209
1443.75,0.0209
1443.50,0.0209
1443.25,0.0209
1443.00,0.0208
1442.75,0.0208
1442.50,0.0207
1442.25,0.0207
1442.00,0.0207
1441.75,0.0206
1441.50,0.0206
1441.25,0.0206
1441.00,0.0205
1440.75,0.0204
1440.50,0.0204
1440.25,0.0203
1440.00,0.0203
1439.75,0.0203
1439.50,0.0203
1439.25,0.0202
1439.00,0.0202
1438.75,0.0202
1438.50,0.0201
1438.25,0.0201
1438.00,0.0200
1437.75,0.0200
1437.50,0.0199
1437.25,0.0199
1437.00,0.0199
1436.75,0.0199
1436.50,0.0200
1436.25,0.0201
1436.00,0.0201
1435.75,0.0200
1435.50,0.0199
1435.25,0.0198
1435.00,0.0198
1434.75,0.0198
1434.50,0.0197
1434.25,0.0197
1434.00,0.0197
1433.75,0.0197
1433.50,0.0197
1433.25,0.0197
1433.00,0.0197
1432.75,0.0197
1432.50,0.0197
1432.25,0.0197
1432.00,0.0197
1431.75,0.0197
1431.50,0.0197
1431.25,0.0197
1431.00,0.0197
1430.75,0.0197
1430.50,0.0197
1430.25,0.0197
1430.00,0.0198
1429.75,0.0198
1429.50,0.0199
1429.25,0.0199
1429.00,0.0199
1428.75,0.0199
1428.50,0.0200
1428.25,0.0200
1428.00,0.0201
1427.75,0.0201
1427.50,0.0202
1427.25,0.0202
1427.00,0.0202
1426.75,0.0203
1426.50,0.0204
1426.25,0.0204
1426.00,0.0205
1425.75,0.0205
1425.50,0.0206
1425.25,0.0207
1425.00,0.0207
1424.75,0.0209
1424.50,0.0210
1424.25,0.0211
1424.00,0.0213
1423.75,0.0215
1423.50,0.0216
1423.25,0.0217
1423.00,0.0218
1422.75,0.0218
1422.50,0.0219
1422.25,0.0220
1422.00,0.0221
1421.75,0.0222
1421.50,0.0223
1421.25,0.0225
1421.00,0.0226
1420.75,0.0227
1420.50,0.0228
1420.25,0.0230
1420.00,0.0232
1419.75,0.0234
1419.50,0.0237
1419.25,0.0241
1419.00,0.0244
1418.75,0.0246
1418.50,0.0246
1418.25,0.0246
1418.00,0.0247
1417.75,0.0248
1417.50,0.0249
1417.25,0.0251
1417.00,0.0253
1416.75,0.0254
1416.50,0.0255
1416.25,0.0256
1416.00,0.0258
1415.75,0.0259
1415.50,0.0260
1415.25,0.0262
1415.00,0.0263
1414.75,0.0264
1414.50,0.0265
1414.25,0.0266
1414.00,0.0267
1413.75,0.0268
1413.50,0.0268
1413.25,0.0269
1413.00,0.0269
1412.75,0.0270
1412.50,0.0271
1412.25,0.0271
1412.00,0.0271
1411.75,0.0272
1411.50,0.0272
1411.25,0.0272
1411.00,0.0272
1410.75,0.0273
1410.50,0.0273
1410.25,0.0273
1410.00,0.0273
1409.75,0.0273
1409.50,0.0272
1409.25,0.0272
1409.00,0.0271
1408.75,0.0271
1408.50,0.0270
1408.25,0.0270
1408.00,0.0269
1407.75,0.0269
1407.50,0.0268
1407.25,0.0268
1407.00,0.0268
1406.75,0.0267
1406.50,0.0266
1406.25,0.0265
1406.00,0.0265
1405.75,0.0264
1405.50,0.0263
1405.25,0.0263
1405.00,0.0261
1404.75,0.0260
1404.50,0.0259
1404.25,0.0258
1404.00,0.0258
1403.75,0.0257
1403.50,0.0257
1403.25,0.0257
1403.00,0.0257
1402.75,0.0256
1402.50,0.0256
1402.25,0.0255
1402.00,0.0255
1401.75,0.0254
1401.50,0.0254
1401.25,0.0253
1401.00,0.0253
1400.75,0.0253
1400.50,0.0252
1400.25,0.0252
1400.00,0.0252
1399.75,0.0252
1399.50,0.0251
1399.25,0.0250
1399.00,0.0249
1398.75,0.0248
1398.50,0.0247
1398.25,0.0245
1398.00,0.0244
1397.75,0.0243
1397.50,0.0242
1397.25,0.0240
1397.00,0.0239
1396.75,0.0238
1396.50,0.0237
1396.25,0.0235
1396.00,0.0234
1395.75,0.0232
1395.50,0.0230
1395.25,0.0229
1395.00,0.0228
1394.75,0.0227
1394.50,0.0226
1394.25,0.0225
1394.00,0.0223
1393.75,0.0221
1393.50,0.0220
1393.25,0.0219
1393.00,0.0218
1392.75,0.0217
1392.50,0.0216
1392.25,0.0215
1392.00,0.0214
1391.75,0.0213
1391.50,0.0211
1391.25,0.0210
1391.00,0.0209
1390.75,0.0207
1390.50,0.0206
1390.25,0.0206
1390.00,0.0205
1389.75,0.0204
1389.50,0.0204
1389.25,0.0203
1389.00,0.0203
1388.75,0.0202
1388.50,0.0202
1388.25,0.0201
1388.00,0.0200
1387.75,0.0200
1387.50,0.0199
1387.25,0.0199
1387.00,0.0199
1386.75,0.0199
1386.50,0.0198
1386.25,0.0197
1386.00,0.0196
1385.75,0.0195
1385.50,0.0195
1385.25,0.0194
1385.00,0.0194
1384.75,0.0194
1384.50,0.0193
1384.25,0.0193
1384.00,0.0193
1383.75,0.0193
1383.50,0.0193
1383.25,0.0193
1383.00,0.0193
1382.75,0.0193
1382.50,0.0193
1382.25,0.0193
1382.00,0.0193
1381.75,0.0192
1381.50,0.0191
1381.25,0.0191
1381.00,0.0190
1380.75,0.0189
1380.50,0.0189
1380.25,0.0189
1380.00,0.0189
1379.75,0.0188
1379.50,0.0188
1379.25,0.0188
1379.00,0.0188
1378.75,0.0188
1378.50,0.0188
1378.25,0.0188
1378.00,0.0188
1377.75,0.0188
1377.50,0.0187
1377.25,0.0187
1377.00,0.0187
1376.75,0.0186
1376.50,0.0186
1376.25,0.0186
1376.00,0.0186
1375.75,0.0186
1375.50,0.0185
1375.25,0.0185
1375.00,0.0185
1374.75,0.0185
1374.50,0.0185
1374.25,0.0185
1374.00,0.0184
1373.75,0.0184
1373.50,0.0185
1373.25,0.0185
1373.00,0.0185
1372.75,0.0185
1372.50,0.0185
1372.25,0.0184
1372.00,0.0184
1371.75,0.0185
1371.50,0.0185
1371.25,0.0185
1371.00,0.0185
1370.75,0.0184
1370.50,0.0184
1370.25,0.0184
1370.00,0.0184
1369.75,0.0183
1369.50,0.0183
1369.25,0.0183
1369.00,0.0183
1368.75,0.0183
1368.50,0.0183
1368.25,0.0182
1368.00,0.0182
1367.75,0.0181
1367.50,0.0181
1367.25,0.0181
1367.00,0.0181
1366.75,0.0181
1366.50,0.0181
1366.25,0.0181
1366.00,0.0181
1365.75,0.0182
1365.50,0.0181
1365.25,0.0181
1365.00,0.0181
1364.75,0.0180
1364.50,0.0180
1364.25,0.0180
1364.00,0.0180
1363.75,0.0180
1363.50,0.0180
1363.25,0.0180
1363.00,0.0180
1362.75,0.0180
1362.50,0.0180
1362.25,0.0180
1362.00,0.0180
1361.75,0.0179
1361.50,0.0179
1361.25,0.0179
1361.00,0.0179
1360.75,0.0179
1360.50,0.0179
1360.25,0.0179
1360.00,0.0179
1359.75,0.0178
1359.50,0.0178
1359.25,0.0178
1359.00,0.0178
1358.75,0.0178
1358.50,0.0178
1358.25,0.0177
1358.00,0.0177
1357.75,0.0177
1357.50,0.0177
1357.25,0.0176
1357.00,0.0176
1356.75,0.0176
1356.50,0.0176
1356.25,0.0176
1356.00,0.0176
1355.75,0.0176
1355.50,0.0176
1355.25,0.0176
1355.00,0.0176
1354.75,0.0176
1354.50,0.0176
1354.25,0.0175
1354.00,0.0175
1353.75,0.0176
1353.50,0.0176
1353.25,0.0176
1353.00,0.0176
1352.75,0.0176
1352.50,0.0176
1352.25,0.0176
1352.00,0.0176
1351.75,0.0176
1351.50,0.0175
1351.25,0.0175
1351.00,0.0175
1350.75,0.0175
1350.50,0.0175
1350.25,0.0175
1350.00,0.0175
1349.75,0.0175
1349.50,0.0174
1349.25,0.0174
1349.00,0.0174
1348.75,0.0174
1348.50,0.0174
1348.25,0.0174
1348.00,0.0174
1347.75,0.0174
1347.50,0.0174
1347.25,0.0175
1347.00,0.0175
1346.75,0.0175
1346.50,0.0175
1346.25,0.0175
1346.00,0.0175
1345.75,0.0175
1345.50,0.0174
1345.25,0.0174
1345.00,0.0174
1344.75,0.0175
1344.50,0.0175
1344.25,0.0174
1344.00,0.0174
1343.75,0.0174
1343.50,0.0174
1343.25,0.0174
1343.00,0.0174
1342.75,0.0174
1342.50,0.0174
1342.25,0.0174
1342.00,0.0174
1341.75,0.0174
1341.50,0.0174
1341.25,0.0174
1341.00,0.0174
1340.75,0.0174
1340.50,0.0174
1340.25,0.0175
1340.00,0.0175
1339.75,0.0175
1339.50,0.0175
1339.25,0.0175
1339.00,0.0175
1338.75,0.0174
1338.50,0.0173
1338.25,0.0173
1338.00,0.0173
1337.75,0.0173
1337.50,0.0173
1337.25,0.0173
1337.00,0.0173
1336.75,0.0173
1336.50,0.0174
1336.25,0.0174
1336.00,0.0174
1335.75,0.0174
1335.50,0.0174
1335.25,0.0173
1335.00,0.0173
1334.75,0.0173
1334.50,0.0172
1334.25,0.0172
1334.00,0.0172
1333.75,0.0172
1333.50,0.0172
1333.25,0.0173
1333.00,0.0173
1332.75,0.0173
1332.50,0.0173
1332.25,0.0173
1332.00,0.0172
1331.75,0.0172
1331.50,0.0172
1331.25,0.0172
1331.00,0.0171
1330.75,0.0171
1330.50,0.0171
1330.25,0.0171
1330.00,0.0171
1329.75,0.0172
1329.50,0.0172
1329.25,0.0172
1329.00,0.0172
1328.75,0.0172
1328.50,0.0172
1328.25,0.0172
1328.00,0.0172
1327.75,0.0172
1327.50,0.0172
1327.25,0.0172
1327.00,0.0172
1326.75,0.0171
1326.50,0.0171
1326.25,0.0171
1326.00,0.0171
1325.75,0.0171
1325.50,0.0172
1325.25,0.0172
1325.00,0.0172
1324.75,0.0173
1324.50,0.0173
1324.25,0.0173
1324.00,0.0173
1323.75,0.0173
1323.50,0.0173
1323.25,0.0173
1323.00,0.0173
1322.75,0.0172
1322.50,0.0173
1322.25,0.0173
1322.00,0.0173
1321.75,0.0173
1321.50,0.0173
1321.25,0.0173
1321.00,0.0173
1320.75,0.0173
1320.50,0.0174
1320.25,0.0174
1320.00,0.0175
1319.75,0.0175
1319.50,0.0174
1319.25,0.0174
1319.00,0.0175
1318.75,0.0175
1318.50,0.0175
1318.25,0.0175
1318.00,0.0175
1317.75,0.0175
1317.50,0.0175
1317.25,0.0176
1317.00,0.0177
1316.75,0.0177
1316.50,0.0177
1316.25,0.0177
1316.00,0.0177
1315.75,0.0177
1315.50,0.0177
1315.25,0.0177
1315.00,0.0177
1314.75,0.0176
1314.50,0.0177
1314.25,0.0177
1314.00,0.0177
1313.75,0.0177
1313.50,0.0177
1313.25,0.0177
1313.00,0.0177
1312.75,0.0178
1312.50,0.0178
1312.25,0.0178
1312.00,0.0178
1311.75,0.0178
1311.50,0.0178
1311.25,0.0178
1311.00,0.0179
1310.75,0.0179
1310.50,0.0179
1310.25,0.0179
1310.00,0.0179
1309.75,0.0179
1309.50,0.0179
1309.25,0.0179
1309.00,0.0179
1308.75,0.0179
1308.50,0.0179
1308.25,0.0179
1308.00,0.0180
1307.75,0.0180
1307.50,0.0181
1307.25,0.0181
1307.00,0.0181
1306.75,0.0181
1306.50,0.0181
1306.25,0.0180
1306.00,0.0180
1305.75,0.0180
1305.50,0.0181
1305.25,0.0181
1305.00,0.0181
1304.75,0.0181
1304.50,0.0181
1304.25,0.0181
1304.00,0.0181
1303.75,0.0182
1303.50,0.0183
1303.25,0.0183
1303.00,0.0183
1302.75,0.0183
1302.50,0.0182
1302.25,0.0182
1302.00,0.0182
1301.75,0.0182
1301.50,0.0182
1301.25,0.0183
1301.00,0.0183
1300.75,0.0184
1300.50,0.0184
1300.25,0.0185
1300.00,0.0185
1299.75,0.0185
1299.50,0.0185
1299.25,0.0185
1299.00,0.0185
1298.75,0.0186
1298.50,0.0186
1298.25,0.0186
1298.00,0.0186
1297.75,0.0186
1297.50,0.0187
1297.25,0.0187
1297.00,0.0187
1296.75,0.0188
1296.50,0.0188
1296.25,0.0188
1296.00,0.0188
1295.75,0.0188
1295.50,0.0189
1295.25,0.0189
1295.00,0.0190
1294.75,0.0190
1294.50,0.0191
1294.25,0.0191
1294.00,0.0192
1293.75,0.0192
1293.50,0.0192
1293.25,0.0192
1293.00,0.0192
1292.75,0.0192
1292.50,0.0193
1292.25,0.0194
1292.00,0.0195
1291.75,0.0196
1291.50,0.0196
1291.25,0.0196
1291.00,0.0196
1290.75,0.0196
1290.50,0.0197
1290.25,0.0198
1290.00,0.0198
1289.75,0.0199
1289.50,0.0200
1289.25,0.0200
1289.00,0.0201
1288.75,0.0201
1288.50,0.0202
1288.25,0.0203
1288.00,0.0203
1287.75,0.0203
1287.50,0.0203
1287.25,0.0204
1287.00,0.0204
1286.75,0.0204
1286.50,0.0205
1286.25,0.0205
1286.00,0.0206
1285.75,0.0207
1285.50,0.0209
1285.25,0.0210
1285.00,0.0211
1284.75,0.0211
1284.50,0.0212
1284.25,0.0212
1284.00,0.0213
1283.75,0.0214
1283.50,0.0215
1283.25,0.0215
1283.00,0.0216
1282.75,0.0218
1282.50,0.0219
1282.25,0.0220
1282.00,0.0221
1281.75,0.0222
1281.50,0.0223
1281.25,0.0224
1281.00,0.0225
1280.75,0.0226
1280.50,0.0227
1280.25,0.0229
1280.00,0.0231
1279.75,0.0233
1279.50,0.0235
1279.25,0.0236
1279.00,0.0238
1278.75,0.0240
1278.50,0.0242
1278.25,0.0244
1278.00,0.0245
1277.75,0.0247
1277.50,0.0249
1277.25,0.0252
1277.00,0.0254
1276.75,0.0257
1276.50,0.0260
1276.25,0.0263
1276.00,0.0266
1275.75,0.0270
1275.50,0.0273
1275.25,0.0277
1275.00,0.0281
1274.75,0.0285
1274.50,0.0290
1274.25,0.0295
1274.00,0.0300
1273.75,0.0305
1273.50,0.0310
1273.25,0.0315
1273.00,0.0321
1272.75,0.0327
1272.50,0.0334
1272.25,0.0341
1272.00,0.0349
1271.75,0.0358
1271.50,0.0367
1271.25,0.0377
1271.00,0.0387
1270.75,0.0398
1270.50,0.0410
1270.25,0.0423
1270.00,0.0437
1269.75,0.0452
1269.50,0.0468
1269.25,0.0485
1269.00,0.0503
1268.75,0.0523
1268.50,0.0545
1268.25,0.0569
1268.00,0.0595
1267.75,0.0622
1267.50,0.0651
1267.25,0.0681
1267.00,0.0713
1266.75,0.0748
1266.50,0.0784
1266.25,0.0822
1266.00,0.0861
1265.75,0.0903
1265.50,0.0946
1265.25,0.0990
1265.00,0.1037
1264.75,0.1084
1264.50,0.1132
1264.25,0.1181
1264.00,0.1231
1263.75,0.1281
1263.50,0.1332
1263.25,0.1383
1263.00,0.1433
1262.75,0.1482
1262.50,0.1531
1262.25,0.1578
1262.00,0.1624
1261.75,0.1667
1261.50,0.1709
1261.25,0.1747
1261.00,0.1783
1260.75,0.1816
1260.50,0.1847
1260.25,0.1874
1260.00,0.1898
1259.75,0.1919
1259.50,0.1936
1259.25,0.1950
1259.00,0.1961
1258.75,0.1968
1258.50,0.1971
1258.25,0.1971
1258.00,0.1967
1257.75,0.1960
1257.50,0.1950
1257.25,0.1936
1257.00,0.1919
1256.75,0.1901
1256.50,0.1880
1256.25,0.1857
1256.00,0.1833
1255.75,0.1808
1255.50,0.1782
1255.25,0.1755
1255.00,0.1729
1254.75,0.1702
1254.50,0.1674
1254.25,0.1647
1254.00,0.1619
1253.75,0.1591
1253.50,0.1562
1253.25,0.1532
1253.00,0.1500
1252.75,0.1468
1252.50,0.1433
1252.25,0.1398
1252.00,0.1362
1251.75,0.1324
1251.50,0.1285
1251.25,0.1245
1251.00,0.1203
1250.75,0.1162
1250.50,0.1120
1250.25,0.1079
1250.00,0.1038
1249.75,0.0999
1249.50,0.0960
1249.25,0.0922
1249.00,0.0885
1248.75,0.0851
1248.50,0.0818
1248.25,0.0787
1248.00,0.0757
1247.75,0.0730
1247.50,0.0704
1247.25,0.0679
1247.00,0.0656
1246.75,0.0634
1246.50,0.0614
1246.25,0.0595
1246.00,0.0578
1245.75,0.0561
1245.50,0.0546
1245.25,0.0531
1245.00,0.0518
1244.75,0.0505
1244.50,0.0493
1244.25,0.0482
1244.00,0.0472
1243.75,0.0462
1243.50,0.0453
1243.25,0.0444
1243.00,0.0436
1242.75,0.0428
1242.50,0.0422
1242.25,0.0415
1242.00,0.0409
1241.75,0.0402
1241.50,0.0396
1241.25,0.0390
1241.00,0.0385
1240.75,0.0380
1240.50,0.0376
1240.25,0.0372
1240.00,0.0368
1239.75,0.0364
1239.50,0.0360
1239.25,0.0356
1239.00,0.0352
1238.75,0.0349
1238.50,0.0345
1238.25,0.0342
1238.00,0.0338
1237.75,0.0335
1237.50,0.0333
1237.25,0.0331
1237.00,0.0329
1236.75,0.0327
1236.50,0.0325
1236.25,0.0323
1236.00,0.0321
1235.75,0.0319
1235.50,0.0317
1235.25,0.0316
1235.00,0.0314
1234.75,0.0313
1234.50,0.0312
1234.25,0.0311
1234.00,0.0310
1233.75,0.0308
1233.50,0.0307
1233.25,0.0306
1233.00,0.0305
1232.75,0.0304
1232.50,0.0303
1232.25,0.0302
1232.00,0.0301
1231.75,0.0300
1231.50,0.0300
1231.25,0.0299
1231.00,0.0298
1230.75,0.0297
1230.50,0.0296
1230.25,0.0296
1230.00,0.0295
1229.75,0.0295
1229.50,0.0294
1229.25,0.0294
1229.00,0.0294
1228.75,0.0294
1228.50,0.0294
1228.25,0.0294
1228.00,0.0295
1227.75,0.0295
1227.50,0.0295
1227.25,0.0295
1227.00,0.0295
1226.75,0.0295
1226.50,0.0294
1226.25,0.0294
1226.00,0.0294
1225.75,0.0294
1225.50,0.0295
1225.25,0.0295
1225.00,0.0296
1224.75,0.0296
1224.50,0.0297
1224.25,0.0297
1224.00,0.0298
1223.75,0.0298
1223.50,0.0299
1223.25,0.0300
1223.00,0.0300
1222.75,0.0300
1222.50,0.0301
1222.25,0.0301
1222.00,0.0302
1221.75,0.0303
1221.50,0.0303
1221.25,0.0304
1221.00,0.0305
1220.75,0.0306
1220.50,0.0306
1220.25,0.0307
1220.00,0.0308
1219.75,0.0309
1219.50,0.0310
1219.25,0.0311
1219.00,0.0311
1218.75,0.0312
1218.50,0.0313
1218.25,0.0314
1218.00,0.0316
1217.75,0.0317
1217.50,0.0318
1217.25,0.0320
1217.00,0.0321
1216.75,0.0322
1216.50,0.0323
1216.25,0.0324
1216.00,0.0325
1215.75,0.0326
1215.50,0.0327
1215.25,0.0327
1215.00,0.0328
1214.75,0.0329
1214.50,0.0330
1214.25,0.0332
1214.00,0.0333
1213.75,0.0335
1213.50,0.0337
1213.25,0.0338
1213.00,0.0340
1212.75,0.0340
1212.50,0.0341
1212.25,0.0342
1212.00,0.0343
1211.75,0.0345
1211.50,0.0347
1211.25,0.0349
1211.00,0.0351
1210.75,0.0352
1210.50,0.0353
1210.25,0.0354
1210.00,0.0356
1209.75,0.0357
1209.50,0.0359
1209.25,0.0360
1209.00,0.0362
1208.75,0.0363
1208.50,0.0364
1208.25,0.0365
1208.00,0.0366
1207.75,0.0367
1207.50,0.0369
1207.25,0.0371
1207.00,0.0372
1206.75,0.0374
1206.50,0.0375
1206.25,0.0376
1206.00,0.0377
1205.75,0.0378
1205.50,0.0380
1205.25,0.0381
1205.00,0.0382
1204.75,0.0383
1204.50,0.0385
1204.25,0.0387
1204.00,0.0388
1203.75,0.0390
1203.50,0.0392
1203.25,0.0393
1203.00,0.0394
1202.75,0.0395
1202.50,0.0396
1202.25,0.0396
1202.00,0.0397
1201.75,0.0398
1201.50,0.0400
1201.25,0.0401
1201.00,0.0403
1200.75,0.0404
1200.50,0.0406
1200.25,0.0407
1200.00,0.0408
1199.75,0.0408
1199.50,0.0409
1199.25,0.0409
1199.00,0.0410
1198.75,0.0411
1198.50,0.0412
1198.25,0.0413
1198.00,0.0415
1197.75,0.0416
1197.50,0.0418
1197.25,0.0419
1197.00,0.0420
1196.75,0.0421
1196.50,0.0421
1196.25,0.0422
1196.00,0.0422
1195.75,0.0423
1195.50,0.0423
1195.25,0.0424
1195.00,0.0425
1194.75,0.0426
1194.50,0.0427
1194.25,0.0428
1194.00,0.0429
1193.75,0.0429
1193.50,0.0430
1193.25,0.0430
1193.00,0.0430
1192.75,0.0430
1192.50,0.0431
1192.25,0.0432
1192.00,0.0433
1191.75,0.0433
1191.50,0.0434
1191.25,0.0435
1191.00,0.0435
1190.75,0.0436
1190.50,0.0437
1190.25,0.0437
1190.00,0.0438
1189.75,0.0438
1189.50,0.0438
1189.25,0.0438
1189.00,0.0438
1188.75,0.0438
1188.50,0.0439
1188.25,0.0439
1188.00,0.0440
1187.75,0.0440
1187.50,0.0440
1187.25,0.0441
1187.00,0.0441
1186.75,0.0442
1186.50,0.0442
1186.25,0.0443
1186.00,0.0444
1185.75,0.0444
1185.50,0.0444
1185.25,0.0444
1185.00,0.0444
1184.75,0.0444
1184.50,0.0445
1184.25,0.0445
1184.00,0.0445
1183.75,0.0445
1183.50,0.0444
1183.25,0.0444
1183.00,0.0444
1182.75,0.0445
1182.50,0.0445
1182.25,0.0446
1182.00,0.0446
1181.75,0.0446
1181.50,0.0446
1181.25,0.0446
1181.00,0.0446
1180.75,0.0446
1180.50,0.0447
1180.25,0.0448
1180.00,0.0448
1179.75,0.0449
1179.50,0.0449
1179.25,0.0449
1179.00,0.0449
1178.75,0.0449
1178.50,0.0450
1178.25,0.0449
1178.00,0.0449
1177.75,0.0449
1177.50,0.0449
1177.25,0.0449
1177.00,0.0449
1176.75,0.0449
1176.50,0.0449
1176.25,0.0449
1176.00,0.0450
1175.75,0.0450
1175.50,0.0450
1175.25,0.0450
1175.00,0.0450
1174.75,0.0450
1174.50,0.0450
1174.25,0.0451
1174.00,0.0451
1173.75,0.0451
1173.50,0.0451
1173.25,0.0451
1173.00,0.0451
1172.75,0.0451
1172.50,0.0452
1172.25,0.0452
1172.00,0.0452
1171.75,0.0452
1171.50,0.0453
1171.25,0.0453
1171.00,0.0454
1170.75,0.0455
1170.50,0.0456
1170.25,0.0456
1170.00,0.0456
1169.75,0.0456
1169.50,0.0455
1169.25,0.0455
1169.00,0.0455
1168.75,0.0455
1168.50,0.0455
1168.25,0.0456
1168.00,0.0457
1167.75,0.0457
1167.50,0.0456
1167.25,0.0456
1167.00,0.0455
1166.75,0.0455
1166.50,0.0455
1166.25,0.0455
1166.00,0.0455
1165.75,0.0456
1165.50,0.0456
1165.25,0.0457
1165.00,0.0457
1164.75,0.0457
1164.50,0.0457
1164.25,0.0458
1164.00,0.0458
1163.75,0.0459
1163.50,0.0459
1163.25,0.0459
1163.00,0.0458
1162.75,0.0459
1162.50,0.0459
1162.25,0.0460
1162.00,0.0460
1161.75,0.0460
1161.50,0.0460
1161.25,0.0460
1161.00,0.0460
1160.75,0.0461
1160.50,0.0461
1160.25,0.0461
1160.00,0.0461
1159.75,0.0461
1159.50,0.0461
1159.25,0.0462
1159.00,0.0462
1158.75,0.0463
1158.50,0.0464
1158.25,0.0464
1158.00,0.0464
1157.75,0.0464
1157.50,0.0465
1157.25,0.0465
1157.00,0.0466
1156.75,0.0466
1156.50,0.0467
1156.25,0.0467
1156.00,0.0467
1155.75,0.0468
1155.50,0.0468
1155.25,0.0469
1155.00,0.0470
1154.75,0.0470
1154.50,0.0471
1154.25,0.0471
1154.00,0.0472
1153.75,0.0473
1153.50,0.0473
1153.25,0.0474
1153.00,0.0474
1152.75,0.0474
1152.50,0.0475
1152.25,0.0476
1152.00,0.0476
1151.75,0.0477
1151.50,0.0478
1151.25,0.0478
1151.00,0.0479
1150.75,0.0480
1150.50,0.0481
1150.25,0.0482
1150.00,0.0483
1149.75,0.0484
1149.50,0.0485
1149.25,0.0485
1149.00,0.0486
1148.75,0.0488
1148.50,0.0489
1148.25,0.0490
1148.00,0.0491
1147.75,0.0491
1147.50,0.0491
1147.25,0.0492
1147.00,0.0493
1146.75,0.0495
1146.50,0.0496
1146.25,0.0497
1146.00,0.0499
1145.75,0.0500
1145.50,0.0502
1145.25,0.0503
1145.00,0.0504
1144.75,0.0505
1144.50,0.0506
1144.25,0.0507
1144.00,0.0509
1143.75,0.0510
1143.50,0.0512
1143.25,0.0514
1143.00,0.0516
1142.75,0.0518
1142.50,0.0519
1142.25,0.0521
1142.00,0.0522
1141.75,0.0524
1141.50,0.0525
1141.25,0.0527
1141.00,0.0529
1140.75,0.0531
1140.50,0.0532
1140.25,0.0534
1140.00,0.0537
1139.75,0.0538
1139.50,0.0540
1139.25,0.0542
1139.00,0.0543
1138.75,0.0544
1138.50,0.0546
1138.25,0.0548
1138.00,0.0550
1137.75,0.0552
1137.50,0.0554
1137.25,0.0556
1137.00,0.0558
1136.75,0.0560
1136.50,0.0563
1136.25,0.0565
1136.00,0.0568
1135.75,0.0570
1135.50,0.0573
1135.25,0.0575
1135.00,0.0577
1134.75,0.0580
1134.50,0.0582
1134.25,0.0584
1134.00,0.0586
1133.75,0.0588
1133.50,0.0591
1133.25,0.0594
1133.00,0.0597
1132.75,0.0600
1132.50,0.0603
1132.25,0.0605
1132.00,0.0608
1131.75,0.0611
1131.50,0.0614
1131.25,0.0617
1131.00,0.0620
1130.75,0.0623
1130.50,0.0626
1130.25,0.0629
1130.00,0.0632
1129.75,0.0635
1129.50,0.0639
1129.25,0.0643
1129.00,0.0647
1128.75,0.0652
1128.50,0.0655
1128.25,0.0659
1128.00,0.0662
1127.75,0.0666
1127.50,0.0671
1127.25,0.0676
1127.00,0.0680
1126.75,0.0685
1126.50,0.0689
1126.25,0.0694
1126.00,0.0699
1125.75,0.0704
1125.50,0.0709
1125.25,0.0714
1125.00,0.0718
1124.75,0.0722
1124.50,0.0726
1124.25,0.0732
1124.00,0.0737
1123.75,0.0744
1123.50,0.0750
1123.25,0.0756
1123.00,0.0763
1122.75,0.0769
1122.50,0.0775
1122.25,0.0780
1122.00,0.0785
1121.75,0.0791
1121.50,0.0797
1121.25,0.0804
1121.00,0.0811
1120.75,0.0819
1120.50,0.0826
1120.25,0.0834
1120.00,0.0841
1119.75,0.0848
1119.50,0.0855
1119.25,0.0863
1119.00,0.0870
1118.75,0.0879
1118.50,0.0887
1118.25,0.0895
1118.00,0.0903
1117.75,0.0911
1117.50,0.0920
1117.25,0.0928
1117.00,0.0936
1116.75,0.0945
1116.50,0.0954
1116.25,0.0962
1116.00,0.0971
1115.75,0.0980
1115.50,0.0990
1115.25,0.1000
1115.00,0.1010
1114.75,0.1020
1114.50,0.1031
1114.25,0.1041
1114.00,0.1051
1113.75,0.1062
1113.50,0.1073
1113.25,0.1083
1113.00,0.1094
1112.75,0.1104
1112.50,0.1114
1112.25,0.1124
1112.00,0.1135
1111.75,0.1146
1111.50,0.1157
1111.25,0.1169
1111.00,0.1180
1110.75,0.1191
1110.50,0.1204
1110.25,0.1216
1110.00,0.1229
1109.75,0.1241
1109.50,0.1253
1109.25,0.1264
1109.00,0.1276
1108.75,0.1289
1108.50,0.1302
1108.25,0.1316
1108.00,0.1330
1107.75,0.1344
1107.50,0.1357
1107.25,0.1370
1107.00,0.1383
1106.75,0.1395
1106.50,0.1408
1106.25,0.1421
1106.00,0.1434
1105.75,0.1449
1105.50,0.1464
1105.25,0.1478
1105.00,0.1492
1104.75,0.1506
1104.50,0.1520
1104.25,0.1535
1104.00,0.1550
1103.75,0.1565
1103.50,0.1580
1103.25,0.1595
1103.00,0.1610
1102.75,0.1625
1102.50,0.1640
1102.25,0.1655
1102.00,0.1671
1101.75,0.1687
1101.50,0.1703
1101.25,0.1718
1101.00,0.1733
1100.75,0.1749
1100.50,0.1765
1100.25,0.1781
1100.00,0.1797
1099.75,0.1812
1099.50,0.1828
1099.25,0.1845
1099.00,0.1861
1098.75,0.1877
1098.50,0.1893
1098.25,0.1908
1098.00,0.1924
1097.75,0.1940
1097.50,0.1957
1097.25,0.1973
1097.00,0.1991
1096.75,0.2008
1096.50,0.2024
1096.25,0.2041
1096.00,0.2057
1095.75,0.2074
1095.50,0.2091
1095.25,0.2108
1095.00,0.2125
1094.75,0.2141
1094.50,0.2158
1094.25,0.2175
1094.00,0.2192
1093.75,0.2208
1093.50,0.2223
1093.25,0.2239
1093.00,0.2254
1092.75,0.2270
1092.50,0.2286
1092.25,0.2302
1092.00,0.2318
1091.75,0.2334
1091.50,0.2350
1091.25,0.2367
1091.00,0.2383
1090.75,0.2400
1090.50,0.2416
1090.25,0.2432
1090.00,0.2447
1089.75,0.2462
1089.50,0.2476
1089.25,0.2491
1089.00,0.2507
1088.75,0.2522
1088.50,0.2538
1088.25,0.2553
1088.00,0.2568
1087.75,0.2582
1087.50,0.2597
1087.25,0.2612
1087.00,0.2626
1086.75,0.2639
1086.50,0.2652
1086.25,0.2666
1086.00,0.2679
1085.75,0.2692
1085.50,0.2705
1085.25,0.2717
1085.00,0.2730
1084.75,0.2742
1084.50,0.2754
1084.25,0.2765
1084.00,0.2777
1083.75,0.2789
1083.50,0.2802
1083.25,0.2814
1083.00,0.2827
1082.75,0.2839
1082.50,0.2851
1082.25,0.2862
1082.00,0.2873
1081.75,0.2883
1081.50,0.2893
1081.25,0.2902
1081.00,0.2911
1080.75,0.2920
1080.50,0.2929
1080.25,0.2938
1080.00,0.2947
1079.75,0.2955
1079.50,0.2964
1079.25,0.2973
1079.00,0.2981
1078.75,0.2990
1078.50,0.2999
1078.25,0.3007
1078.00,0.3016
1077.75,0.3024
1077.50,0.3031
1077.25,0.3038
1077.00,0.3044
1076.75,0.3050
1076.50,0.3056
1076.25,0.3062
1076.00,0.3068
1075.75,0.3074
1075.50,0.3080
1075.25,0.3086
1075.00,0.3093
1074.75,0.3099
1074.50,0.3104
1074.25,0.3109
1074.00,0.3114
1073.75,0.3119
1073.50,0.3123
1073.25,0.3128
1073.00,0.3133
1072.75,0.3137
1072.50,0.3141
1072.25,0.3145
1072.00,0.3150
1071.75,0.3154
1071.50,0.3158
1071.25,0.3162
1071.00,0.3165
1070.75,0.3168
1070.50,0.3172
1070.25,0.3175
1070.00,0.3178
1069.75,0.3182
1069.50,0.3185
1069.25,0.3189
1069.00,0.3193
1068.75,0.3196
1068.50,0.3200
1068.25,0.3204
1068.00,0.3208
1067.75,0.3211
1067.50,0.3214
1067.25,0.3215
1067.00,0.3216
1066.75,0.3217
1066.50,0.3219
1066.25,0.3221
1066.00,0.3223
1065.75,0.3225
1065.50,0.3226
1065.25,0.3227
1065.00,0.3229
1064.75,0.3231
1064.50,0.3234
1064.25,0.3237
1064.00,0.3239
1063.75,0.3240
1063.50,0.3240
1063.25,0.3240
1063.00,0.3239
1062.75,0.3239
1062.50,0.3239
1062.25,0.3241
1062.00,0.3242
1061.75,0.3243
1061.50,0.3243
1061.25,0.3243
1061.00,0.3243
1060.75,0.3243
1060.50,0.3244
1060.25,0.3244
1060.00,0.3245
1059.75,0.3245
1059.50,0.3246
1059.25,0.3246
1059.00,0.3245
1058.75,0.3244
1058.50,0.3242
1058.25,0.3239
1058.00,0.3238
1057.75,0.3237
1057.50,0.3236
1057.25,0.3236
1057.00,0.3235
1056.75,0.3234
1056.50,0.3232
1056.25,0.3230
1056.00,0.3228
1055.75,0.3226
1055.50,0.3223
1055.25,0.3221
1055.00,0.3220
1054.75,0.3218
1054.50,0.3215
1054.25,0.3213
1054.00,0.3210
1053.75,0.3207
1053.50,0.3204
1053.25,0.3200
1053.00,0.3197
1052.75,0.3193
1052.50,0.3189
1052.25,0.3186
1052.00,0.3182
1051.75,0.3178
1051.50,0.3175
1051.25,0.3171
1051.00,0.3169
1050.75,0.3166
1050.50,0.3163
1050.25,0.3160
1050.00,0.3157
1049.75,0.3154
1049.50,0.3150
1049.25,0.3146
1049.00,0.3142
1048.75,0.3139
1048.50,0.3136
1048.25,0.3133
1048.00,0.3131
1047.75,0.3128
1047.50,0.3125
1047.25,0.3122
1047.00,0.3119
1046.75,0.3116
1046.50,0.3113
1046.25,0.3111
1046.00,0.3109
1045.75,0.3107
1045.50,0.3105
1045.25,0.3103
1045.00,0.3101
1044.75,0.3100
1044.50,0.3098
1044.25,0.3096
1044.00,0.3093
1043.75,0.3092
1043.50,0.3091
1043.25,0.3090
1043.00,0.3089
1042.75,0.3087
1042.50,0.3085
1042.25,0.3083
1042.00,0.3081
1041.75,0.3080
1041.50,0.3079
1041.25,0.3079
1041.00,0.3078
1040.75,0.3078
1040.50,0.3078
1040.25,0.3079
1040.00,0.3080
1039.75,0.3081
1039.50,0.3082
1039.25,0.3084
1039.00,0.3086
1038.75,0.3088
1038.50,0.3090
1038.25,0.3093
1038.00,0.3096
1037.75,0.3098
1037.50,0.3100
1037.25,0.3102
1037.00,0.3104
1036.75,0.3106
1036.50,0.3108
1036.25,0.3111
1036.00,0.3114
1035.75,0.3117
1035.50,0.3121
1035.25,0.3126
1035.00,0.3130
1034.75,0.3135
1034.50,0.3140
1034.25,0.3145
1034.00,0.3151
1033.75,0.3156
1033.50,0.3162
1033.25,0.3168
1033.00,0.3174
1032.75,0.3180
1032.50,0.3187
1032.25,0.3193
1032.00,0.3200
1031.75,0.3207
1031.50,0.3216
1031.25,0.3224
1031.00,0.3233
1030.75,0.3240
1030.50,0.3248
1030.25,0.3256
1030.00,0.3264
1029.75,0.3274
1029.50,0.3284
1029.25,0.3295
1029.00,0.3305
1028.75,0.3315
1028.50,0.3325
1028.25,0.3335
1028.00,0.3347
1027.75,0.3359
1027.50,0.3372
1027.25,0.3385
1027.00,0.3397
1026.75,0.3409
1026.50,0.3421
1026.25,0.3434
1026.00,0.3447
1025.75,0.3461
1025.50,0.3476
1025.25,0.3493
1025.00,0.3509
1024.75,0.3525
1024.50,0.3539
1024.25,0.3553
1024.00,0.3567
1023.75,0.3582
1023.50,0.3599
1023.25,0.3616
1023.00,0.3633
1022.75,0.3650
1022.50,0.3668
1022.25,0.3686
1022.00,0.3704
1021.75,0.3723
1021.50,0.3742
1021.25,0.3761
1021.00,0.3780
1020.75,0.3799
1020.50,0.3819
1020.25,0.3839
1020.00,0.3859
1019.75,0.3880
1019.50,0.3901
1019.25,0.3922
1019.00,0.3944
1018.75,0.3967
1018.50,0.3989
1018.25,0.4010
1018.00,0.4030
1017.75,0.4049
1017.50,0.4069
1017.25,0.4089
1017.00,0.4110
1016.75,0.4131
1016.50,0.4150
1016.25,0.4168
1016.00,0.4186
1015.75,0.4203
1015.50,0.4222
1015.25,0.4241
1015.00,0.4259
1014.75,0.4276
1014.50,0.4290
1014.25,0.4303
1014.00,0.4313
1013.75,0.4323
1013.50,0.4332
1013.25,0.4340
1013.00,0.4347
1012.75,0.4353
1012.50,0.4356
1012.25,0.4358
1012.00,0.4357
1011.75,0.4354
1011.50,0.4350
1011.25,0.4343
1011.00,0.4334
1010.75,0.4322
1010.50,0.4307
1010.25,0.4291
1010.00,0.4272
1009.75,0.4253
1009.50,0.4232
1009.25,0.4209
1009.00,0.4184
1008.75,0.4155
1008.50,0.4125
1008.25,0.4092
1008.00,0.4057
1007.75,0.4019
1007.50,0.3979
1007.25,0.3937
1007.00,0.3893
1006.75,0.3849
1006.50,0.3804
1006.25,0.3759
1006.00,0.3712
1005.75,0.3664
1005.50,0.3614
1005.25,0.3564
1005.00,0.3513
1004.75,0.3461
1004.50,0.3409
1004.25,0.3356
1004.00,0.3302
1003.75,0.3248
1003.50,0.3194
1003.25,0.3140
1003.00,0.3088
1002.75,0.3035
1002.50,0.2982
1002.25,0.2927
1002.00,0.2873
1001.75,0.2819
1001.50,0.2766
1001.25,0.2715
1001.00,0.2665
1000.75,0.2615
1000.50,0.2565
1000.25,0.2515
1000.00,0.2466
999.75,0.2418
999.50,0.2372
999.25,0.2327
999.00,0.2284
998.75,0.2242
998.50,0.2201
998.25,0.2161
998.00,0.2121
997.75,0.2081
997.50,0.2041
997.25,0.2003
997.00,0.1965
996.75,0.1928
996.50,0.1893
996.25,0.1859
996.00,0.1827
995.75,0.1796
995.50,0.1765
995.25,0.1735
995.00,0.1706
994.75,0.1676
994.50,0.1647
994.25,0.1618
994.00,0.1590
993.75,0.1563
993.50,0.1538
993.25,0.1513
993.00,0.1489
992.75,0.1466
992.50,0.1443
992.25,0.1420
992.00,0.1397
991.75,0.1376
991.50,0.1355
991.25,0.1335
991.00,0.1315
990.75,0.1296
990.50,0.1277
990.25,0.1258
990.00,0.1240
989.75,0.1223
989.50,0.1206
989.25,0.1189
989.00,0.1173
988.75,0.1158
988.50,0.1143
988.25,0.1129
988.00,0.1115
987.75,0.1100
987.50,0.1085
987.25,0.1070
987.00,0.1056
986.75,0.1043
986.50,0.1030
986.25,0.1018
986.00,0.1005
985.75,0.0993
985.50,0.0982
985.25,0.0971
985.00,0.0961
984.75,0.0951
984.50,0.0941
984.25,0.0930
984.00,0.0920
983.75,0.0909
983.50,0.0899
983.25,0.0890
983.00,0.0880
982.75,0.0871
982.50,0.0862
982.25,0.0854
982.00,0.0845
981.75,0.0837
981.50,0.0829
981.25,0.0821
981.00,0.0813
980.75,0.0805
980.50,0.0797
980.25,0.0789
980.00,0.0782
979.75,0.0774
979.50,0.0767
979.25,0.0760
979.00,0.0754
978.75,0.0748
978.50,0.0742
978.25,0.0736
978.00,0.0731
977.75,0.0724
977.50,0.0718
977.25,0.0713
977.00,0.0708
976.75,0.0703
976.50,0.0698
976.25,0.0693
976.00,0.0688
975.75,0.0682
975.50,0.0677
975.25,0.0672
975.00,0.0666
974.75,0.0661
974.50,0.0656
974.25,0.0652
974.00,0.0648
973.75,0.0644
973.50,0.0640
973.25,0.0636
973.00,0.0632
972.75,0.0628
972.50,0.0624
972.25,0.0621
972.00,0.0617
971.75,0.0614
971.50,0.0611
971.25,0.0607
971.00,0.0603
970.75,0.0599
970.50,0.0595
970.25,0.0592
970.00,0.0589
969.75,0.0586
969.50,0.0583
969.25,0.0580
969.00,0.0577
968.75,0.0574
968.50,0.0571
968.25,0.0568
968.00,0.0565
967.75,0.0562
967.50,0.0558
967.25,0.0556
967.00,0.0553
966.75,0.0551
966.50,0.0549
966.25,0.0547
966.00,0.0544
965.75,0.0542
965.50,0.0539
965.25,0.0538
965.00,0.0536
964.75,0.0534
964.50,0.0532
964.25,0.0530
964.00,0.0527
963.75,0.0526
963.50,0.0524
963.25,0.0523
963.00,0.0521
962.75,0.0520
962.50,0.0518
962.25,0.0517
962.00,0.0516
961.75,0.0514
961.50,0.0513
961.25,0.0511
961.00,0.0510
960.75,0.0509
960.50,0.0507
960.25,0.0506
960.00,0.0504
959.75,0.0503
959.50,0.0501
959.25,0.0500
959.00,0.0499
958.75,0.0499
958.50,0.0498
958.25,0.0496
958.00,0.0495
957.75,0.0493
957.50,0.0492
957.25,0.0491
957.00,0.0489
956.75,0.0488
956.50,0.0487
956.25,0.0485
956.00,0.0484
955.75,0.0482
955.50,0.0481
955.25,0.0480
955.00,0.0479
954.75,0.0477
954.50,0.0475
954.25,0.0472
954.00,0.0470
953.75,0.0467
953.50,0.0465
953.25,0.0463
953.00,0.0461
952.75,0.0459
952.50,0.0456
952.25,0.0453
952.00,0.0450
951.75,0.0447
951.50,0.0445
951.25,0.0442
951.00,0.0440
950.75,0.0438
950.50,0.0437
950.25,0.0435
950.00,0.0433
949.75,0.0431
949.50,0.0430
949.25,0.0427
949.00,0.0425
948.75,0.0422
948.50,0.0420
948.25,0.0419
948.00,0.0417
947.75,0.0416
947.50,0.0415
947.25,0.0414
947.00,0.0412
946.75,0.0411
946.50,0.0410
946.25,0.0409
946.00,0.0408
945.75,0.0406
945.50,0.0404
945.25,0.0402
945.00,0.0400
944.75,0.0399
944.50,0.0399
944.25,0.0399
944.00,0.0399
943.75,0.0398
943.50,0.0396
943.25,0.0394
943.00,0.0393
942.75,0.0392
942.50,0.0391
942.25,0.0390
942.00,0.0389
941.75,0.0388
941.50,0.0387
941.25,0.0386
941.00,0.0385
940.75,0.0385
940.50,0.0383
940.25,0.0382
940.00,0.0382
939.75,0.0382
939.50,0.0381
939.25,0.0381
939.00,0.0379
938.75,0.0378
938.50,0.0377
938.25,0.0377
938.00,0.0376
937.75,0.0375
937.50,0.0374
937.25,0.0373
937.00,0.0372
936.75,0.0372
936.50,0.0371
936.25,0.0371
936.00,0.0370
935.75,0.0370
935.50,0.0369
935.25,0.0369
935.00,0.0368
934.75,0.0368
934.50,0.0368
934.25,0.0367
934.00,0.0367
933.75,0.0366
933.50,0.0365
933.25,0.0364
933.00,0.0362
932.75,0.0361
932.50,0.0361
932.25,0.0361
932.00,0.0361
931.75,0.0361
931.50,0.0361
931.25,0.0361
931.00,0.0360
930.75,0.0359
930.50,0.0359
930.25,0.0359
930.00,0.0359
929.75,0.0359
929.50,0.0359
929.25,0.0359
929.00,0.0359
928.75,0.0359
928.50,0.0358
928.25,0.0358
928.00,0.0358
927.75,0.0358
927.50,0.0357
927.25,0.0355
927.00,0.0354
926.75,0.0354
926.50,0.0354
926.25,0.0354
926.00,0.0355
925.75,0.0355
925.50,0.0355
925.25,0.0354
925.00,0.0352
924.75,0.0351
924.50,0.0350
924.25,0.0350
924.00,0.0350
923.75,0.0351
923.50,0.0351
923.25,0.0351
923.00,0.0352
922.75,0.0352
922.50,0.0353
922.25,0.0353
922.00,0.0353
921.75,0.0352
921.50,0.0351
921.25,0.0350
921.00,0.0350
920.75,0.0350
920.50,0.0351
920.25,0.0352
920.00,0.0353
919.75,0.0353
919.50,0.0353
919.25,0.0352
919.00,0.0352
918.75,0.0352
918.50,0.0353
918.25,0.0354
918.00,0.0355
917.75,0.0355
917.50,0.0355
917.25,0.0354
917.00,0.0354
916.75,0.0354
916.50,0.0354
916.25,0.0354
916.00,0.0354
915.75,0.0355
915.50,0.0355
915.25,0.0356
915.00,0.0356
914.75,0.0356
914.50,0.0356
914.25,0.0356
914.00,0.0357
913.75,0.0358
913.50,0.0359
913.25,0.0360
913.00,0.0360
912.75,0.0361
912.50,0.0361
912.25,0.0361
912.00,0.0361
911.75,0.0361
911.50,0.0362
911.25,0.0362
911.00,0.0363
910.75,0.0363
910.50,0.0364
910.25,0.0365
910.00,0.0367
909.75,0.0368
909.50,0.0368
909.25,0.0367
909.00,0.0367
908.75,0.0368
908.50,0.0368
908.25,0.0370
908.00,0.0371
907.75,0.0371
907.50,0.0372
907.25,0.0372
907.00,0.0373
906.75,0.0374
906.50,0.0375
906.25,0.0376
906.00,0.0377
905.75,0.0377
905.50,0.0376
905.25,0.0376
905.00,0.0375
904.75,0.0376
904.50,0.0377
904.25,0.0378
904.00,0.0380
903.75,0.0382
903.50,0.0383
903.25,0.0384
903.00,0.0386
902.75,0.0387
902.50,0.0388
902.25,0.0389
902.00,0.0390
901.75,0.0391
901.50,0.0391
901.25,0.0391
901.00,0.0392
900.75,0.0393
900.50,0.0395
900.25,0.0397
900.00,0.0399
899.75,0.0401
899.50,0.0403
899.25,0.0404
899.00,0.0404
898.75,0.0404
898.50,0.0404
898.25,0.0405
898.00,0.0406
897.75,0.0408
897.50,0.0410
897.25,0.0412
897.00,0.0415
896.75,0.0416
896.50,0.0419
896.25,0.0421
896.00,0.0423
895.75,0.0425
895.50,0.0426
895.25,0.0428
895.00,0.0430
894.75,0.0432
894.50,0.0434
894.25,0.0437
894.00,0.0438
893.75,0.0440
893.50,0.0440
893.25,0.0441
893.00,0.0442
892.75,0.0445
892.50,0.0447
892.25,0.0450
892.00,0.0453
891.75,0.0456
891.50,0.0458
891.25,0.0461
891.00,0.0463
890.75,0.0466
890.50,0.0468
890.25,0.0470
890.00,0.0473
889.75,0.0475
889.50,0.0478
889.25,0.0481
889.00,0.0484
888.75,0.0487
888.50,0.0490
888.25,0.0493
888.00,0.0496
887.75,0.0499
887.50,0.0504
887.25,0.0508
887.00,0.0512
886.75,0.0516
886.50,0.0519
886.25,0.0523
886.00,0.0528
885.75,0.0532
885.50,0.0538
885.25,0.0543
885.00,0.0548
884.75,0.0553
884.50,0.0558
884.25,0.0563
884.00,0.0568
883.75,0.0573
883.50,0.0577
883.25,0.0582
883.00,0.0587
882.75,0.0592
882.50,0.0598
882.25,0.0605
882.00,0.0613
881.75,0.0621
881.50,0.0628
881.25,0.0636
881.00,0.0643
880.75,0.0651
880.50,0.0659
880.25,0.0667
880.00,0.0674
879.75,0.0682
879.50,0.0691
879.25,0.0699
879.00,0.0708
878.75,0.0717
878.50,0.0725
878.25,0.0733
878.00,0.0742
877.75,0.0751
877.50,0.0760
877.25,0.0771
877.00,0.0781
876.75,0.0792
876.50,0.0803
876.25,0.0814
876.00,0.0825
875.75,0.0836
875.50,0.0847
875.25,0.0859
875.00,0.0872
874.75,0.0884
874.50,0.0896
874.25,0.0909
874.00,0.0922
873.75,0.0936
873.50,0.0951
873.25,0.0966
873.00,0.0982
872.75,0.0997
872.50,0.1011
872.25,0.1025
872.00,0.1039
871.75,0.1053
871.50,0.1068
871.25,0.1084
871.00,0.1101
870.75,0.1118
870.50,0.1133
870.25,0.1148
870.00,0.1162
869.75,0.1175
869.50,0.1190
869.25,0.1204
869.00,0.1219
868.75,0.1233
868.50,0.1246
868.25,0.1258
868.00,0.1269
867.75,0.1280
867.50,0.1290
867.25,0.1300
867.00,0.1309
866.75,0.1318
866.50,0.1325
866.25,0.1331
866.00,0.1337
865.75,0.1341
865.50,0.1345
865.25,0.1349
865.00,0.1352
864.75,0.1355
864.50,0.1357
864.25,0.1358
864.00,0.1358
863.75,0.1356
863.50,0.1355
863.25,0.1354
863.00,0.1353
862.75,0.1352
862.50,0.1349
862.25,0.1345
862.00,0.1341
861.75,0.1337
861.50,0.1333
861.25,0.1328
861.00,0.1322
860.75,0.1316
860.50,0.1310
860.25,0.1304
860.00,0.1298
859.75,0.1293
859.50,0.1287
859.25,0.1282
859.00,0.1276
858.75,0.1271
858.50,0.1265
858.25,0.1260
858.00,0.1256
857.75,0.1252
857.50,0.1249
857.25,0.1247
857.00,0.1244
856.75,0.1242
856.50,0.1241
856.25,0.1240
856.00,0.1241
855.75,0.1241
855.50,0.1241
855.25,0.1242
855.00,0.1242
854.75,0.1243
854.50,0.1245
854.25,0.1247
854.00,0.1250
853.75,0.1254
853.50,0.1260
853.25,0.1267
853.00,0.1275
852.75,0.1284
852.50,0.1292
852.25,0.1300
852.00,0.1307
851.75,0.1316
851.50,0.1325
851.25,0.1335
851.00,0.1346
850.75,0.1358
850.50,0.1370
850.25,0.1382
850.00,0.1394
849.75,0.1406
849.50,0.1418
849.25,0.1430
849.00,0.1443
848.75,0.1457
848.50,0.1469
848.25,0.1481
848.00,0.1491
847.75,0.1500
847.50,0.1510
847.25,0.1522
847.00,0.1535
846.75,0.1548
846.50,0.1560
846.25,0.1570
846.00,0.1579
845.75,0.1588
845.50,0.1595
845.25,0.1601
845.00,0.1606
844.75,0.1611
844.50,0.1615
844.25,0.1620
844.00,0.1624
843.75,0.1627
843.50,0.1629
843.25,0.1628
843.00,0.1626
842.75,0.1622
842.50,0.1617
842.25,0.1613
842.00,0.1608
841.75,0.1603
841.50,0.1597
841.25,0.1589
841.00,0.1580
840.75,0.1569
840.50,0.1557
840.25,0.1545
840.00,0.1532
839.75,0.1520
839.50,0.1507
839.25,0.1494
839.00,0.1482
838.75,0.1470
838.50,0.1457
838.25,0.1445
838.00,0.1431
837.75,0.1418
837.50,0.1404
837.25,0.1392
837.00,0.1379
836.75,0.1368
836.50,0.1356
836.25,0.1344
836.00,0.1332
835.75,0.1320
835.50,0.1308
835.25,0.1296
835.00,0.1284
834.75,0.1274
834.50,0.1264
834.25,0.1256
834.00,0.1249
833.75,0.1241
833.50,0.1234
833.25,0.1227
833.00,0.1221
832.75,0.1217
832.50,0.1215
832.25,0.1214
832.00,0.1213
831.75,0.1212
831.50,0.1210
831.25,0.1209
831.00,0.1208
830.75,0.1207
830.50,0.1208
830.25,0.1209
830.00,0.1212
829.75,0.1217
829.50,0.1222
829.25,0.1229
829.00,0.1236
828.75,0.1244
828.50,0.1252
828.25,0.1260
828.00,0.1269
827.75,0.1279
827.50,0.1291
827.25,0.1304
827.00,0.1317
826.75,0.1332
826.50,0.1348
826.25,0.1365
826.00,0.1383
825.75,0.1402
825.50,0.1422
825.25,0.1442
825.00,0.1463
824.75,0.1484
824.50,0.1507
824.25,0.1530
824.00,0.1553
823.75,0.1578
823.50,0.1603
823.25,0.1628
823.00,0.1654
822.75,0.1679
822.50,0.1705
822.25,0.1729
822.00,0.1753
821.75,0.1777
821.50,0.1801
821.25,0.1826
821.00,0.1850
820.75,0.1873
820.50,0.1895
820.25,0.1917
820.00,0.1938
819.75,0.1959
819.50,0.1981
819.25,0.2001
819.00,0.2019
818.75,0.2035
818.50,0.2051
818.25,0.2066
818.00,0.2081
817.75,0.2097
817.50,0.2112
817.25,0.2127
817.00,0.2141
816.75,0.2155
816.50,0.2168
816.25,0.2181
816.00,0.2194
815.75,0.2207
815.50,0.2220
815.25,0.2234
815.00,0.2248
814.75,0.2262
814.50,0.2276
814.25,0.2289
814.00,0.2304
813.75,0.2320
813.50,0.2337
813.25,0.2354
813.00,0.2373
812.75,0.2391
812.50,0.2410
812.25,0.2428
812.00,0.2448
811.75,0.2468
811.50,0.2488
811.25,0.2509
811.00,0.2529
810.75,0.2550
810.50,0.2572
810.25,0.2596
810.00,0.2623
809.75,0.2651
809.50,0.2681
809.25,0.2711
809.00,0.2741
808.75,0.2771
808.50,0.2802
808.25,0.2833
808.00,0.2865
807.75,0.2898
807.50,0.2932
807.25,0.2968
807.00,0.3006
806.75,0.3043
806.50,0.3081
806.25,0.3120
806.00,0.3159
805.75,0.3199
805.50,0.3239
805.25,0.3279
805.00,0.3321
804.75,0.3363
804.50,0.3407
804.25,0.3452
804.00,0.3496
803.75,0.3541
803.50,0.3586
803.25,0.3631
803.00,0.3677
802.75,0.3725
802.50,0.3774
802.25,0.3824
802.00,0.3875
801.75,0.3925
801.50,0.3974
801.25,0.4022
801.00,0.4068
800.75,0.4114
800.50,0.4161
800.25,0.4210
800.00,0.4261
