Created as New Dataset,Sample 002 By irlear Date Monday, July 06 2009
cm-1,A
4000.00,0.0364
3999.50,0.0364
3999.00,0.0364
3998.50,0.0363
3998.00,0.0363
3997.50,0.0363
3997.00,0.0363
3996.50,0.0363
3996.00,0.0363
3995.50,0.0363
3995.00,0.0363
3994.50,0.0363
3994.00,0.0363
3993.50,0.0363
3993.00,0.0363
3992.50,0.0363
3992.00,0.0363
3991.50,0.0362
3991.00,0.0362
3990.50,0.0362
3990.00,0.0362
3989.50,0.0362
3989.00,0.0362
3988.50,0.0362
3988.00,0.0362
3987.50,0.0362
3987.00,0.0362
3986.50,0.0361
3986.00,0.0361
3985.50,0.0361
3985.00,0.0361
3984.50,0.0361
3984.00,0.0361
3983.50,0.0361
3983.00,0.0361
3982.50,0.0361
3982.00,0.0361
3981.50,0.0361
3981.00,0.0361
3980.50,0.0361
3980.00,0.0361
3979.50,0.0361
3979.00,0.0361
3978.50,0.0361
3978.00,0.0360
3977.50,0.0360
3977.00,0.0360
3976.50,0.0360
3976.00,0.0360
3975.50,0.0360
3975.00,0.0360
3974.50,0.0360
3974.00,0.0360
3973.50,0.0360
3973.00,0.0360
3972.50,0.0360
3972.00,0.0360
3971.50,0.0360
3971.00,0.0360
3970.50,0.0360
3970.00,0.0360
3969.50,0.0360
3969.00,0.0360
3968.50,0.0360
3968.00,0.0360
3967.50,0.0360
3967.00,0.0360
3966.50,0.0360
3966.00,0.0360
3965.50,0.0360
3965.00,0.0360
3964.50,0.0359
3964.00,0.0359
3963.50,0.0359
3963.00,0.0359
3962.50,0.0359
3962.00,0.0359
3961.50,0.0359
3961.00,0.0359
3960.50,0.0359
3960.00,0.0359
3959.50,0.0359
3959.00,0.0359
3958.50,0.0359
3958.00,0.0359
3957.50,0.0359
3957.00,0.0359
3956.50,0.0359
3956.00,0.0359
3955.50,0.0359
3955.00,0.0359
3954.50,0.0358
3954.00,0.0358
3953.50,0.0358
3953.00,0.0358
3952.50,0.0358
3952.00,0.0359
3951.50,0.0359
3951.00,0.0359
3950.50,0.0359
3950.00,0.0359
3949.50,0.0359
3949.00,0.0359
3948.50,0.0359
3948.00,0.0359
3947.50,0.0359
3947.00,0.0359
3946.50,0.0358
3946.00,0.0358
3945.50,0.0358
3945.00,0.0358
3944.50,0.0358
3944.00,0.0358
3943.50,0.0358
3943.00,0.0358
3942.50,0.0359
3942.00,0.0359
3941.50,0.0359
3941.00,0.0358
3940.50,0.0358
3940.00,0.0358
3939.50,0.0358
3939.00,0.0358
3938.50,0.0358
3938.00,0.0358
3937.50,0.0358
3937.00,0.0358
3936.50,0.0357
3936.00,0.0357
3935.50,0.0357
3935.00,0.0357
3934.50,0.0357
3934.00,0.0357
3933.50,0.0358
3933.00,0.0358
3932.50,0.0357
3932.00,0.0358
3931.50,0.0358
3931.00,0.0358
3930.50,0.0358
3930.00,0.0358
3929.50,0.0358
3929.00,0.0358
3928.50,0.0357
3928.00,0.0357
3927.50,0.0357
3927.00,0.0357
3926.50,0.0357
3926.00,0.0357
3925.50,0.0357
3925.00,0.0357
3924.50,0.0358
3924.00,0.0358
3923.50,0.0358
3923.00,0.0358
3922.50,0.0358
3922.00,0.0358
3921.50,0.0358
3921.00,0.0358
3920.50,0.0358
3920.00,0.0358
3919.50,0.0358
3919.00,0.0358
3918.50,0.0358
3918.00,0.0358
3917.50,0.0358
3917.00,0.0358
3916.50,0.0358
3916.00,0.0358
3915.50,0.0358
3915.00,0.0358
3914.50,0.0358
3914.00,0.0358
3913.50,0.0357
3913.00,0.0357
3912.50,0.0357
3912.00,0.0357
3911.50,0.0357
3911.00,0.0357
3910.50,0.0357
3910.00,0.0357
3909.50,0.0357
3909.00,0.0357
3908.50,0.0358
3908.00,0.0358
3907.50,0.0358
3907.00,0.0358
3906.50,0.0358
3906.00,0.0358
3905.50,0.0359
3905.00,0.0359
3904.50,0.0359
3904.00,0.0360
3903.50,0.0360
3903.00,0.0360
3902.50,0.0359
3902.00,0.0359
3901.50,0.0360
3901.00,0.0360
3900.50,0.0359
3900.00,0.0359
3899.50,0.0359
3899.00,0.0360
3898.50,0.0360
3898.00,0.0360
3897.50,0.0359
3897.00,0.0359
3896.50,0.0359
3896.00,0.0358
3895.50,0.0358
3895.00,0.0358
3894.50,0.0358
3894.00,0.0358
3893.50,0.0358
3893.00,0.0359
3892.50,0.0359
3892.00,0.0359
3891.50,0.0359
3891.00,0.0359
3890.50,0.0360
3890.00,0.0360
3889.50,0.0360
3889.00,0.0359
3888.50,0.0359
3888.00,0.0359
3887.50,0.0359
3887.00,0.0359
3886.50,0.0359
3886.00,0.0358
3885.50,0.0358
3885.00,0.0359
3884.50,0.0359
3884.00,0.0359
3883.50,0.0359
3883.00,0.0360
3882.50,0.0360
3882.00,0.0360
3881.50,0.0360
3881.00,0.0360
3880.50,0.0360
3880.00,0.0360
3879.50,0.0361
3879.00,0.0361
3878.50,0.0360
3878.00,0.0360
3877.50,0.0360
3877.00,0.0360
3876.50,0.0360
3876.00,0.0360
3875.50,0.0360
3875.00,0.0360
3874.50,0.0360
3874.00,0.0360
3873.50,0.0361
3873.00,0.0361
3872.50,0.0360
3872.00,0.0361
3871.50,0.0361
3871.00,0.0362
3870.50,0.0362
3870.00,0.0361
3869.50,0.0362
3869.00,0.0363
3868.50,0.0363
3868.00,0.0362
3867.50,0.0361
3867.00,0.0361
3866.50,0.0361
3866.00,0.0361
3865.50,0.0361
3865.00,0.0361
3864.50,0.0362
3864.00,0.0362
3863.50,0.0362
3863.00,0.0362
3862.50,0.0362
3862.00,0.0362
3861.50,0.0362
3861.00,0.0362
3860.50,0.0362
3860.00,0.0362
3859.50,0.0362
3859.00,0.0362
3858.50,0.0362
3858.00,0.0362
3857.50,0.0362
3857.00,0.0363
3856.50,0.0364
3856.00,0.0365
3855.50,0.0367
3855.00,0.0369
3854.50,0.0371
3854.00,0.0369
3853.50,0.0369
3853.00,0.0369
3852.50,0.0368
3852.00,0.0368
3851.50,0.0369
3851.00,0.0369
3850.50,0.0367
3850.00,0.0366
3849.50,0.0367
3849.00,0.0367
3848.50,0.0367
3848.00,0.0367
3847.50,0.0367
3847.00,0.0367
3846.50,0.0367
3846.00,0.0367
3845.50,0.0368
3845.00,0.0369
3844.50,0.0369
3844.00,0.0370
3843.50,0.0371
3843.00,0.0372
3842.50,0.0372
3842.00,0.0372
3841.50,0.0372
3841.00,0.0372
3840.50,0.0373
3840.00,0.0373
3839.50,0.0374
3839.00,0.0374
3838.50,0.0374
3838.00,0.0374
3837.50,0.0374
3837.00,0.0375
3836.50,0.0375
3836.00,0.0374
3835.50,0.0374
3835.00,0.0376
3834.50,0.0377
3834.00,0.0377
3833.50,0.0377
3833.00,0.0377
3832.50,0.0377
3832.00,0.0377
3831.50,0.0378
3831.00,0.0378
3830.50,0.0378
3830.00,0.0378
3829.50,0.0378
3829.00,0.0378
3828.50,0.0378
3828.00,0.0378
3827.50,0.0378
3827.00,0.0378
3826.50,0.0378
3826.00,0.0379
3825.50,0.0379
3825.00,0.0379
3824.50,0.0379
3824.00,0.0379
3823.50,0.0379
3823.00,0.0380
3822.50,0.0380
3822.00,0.0381
3821.50,0.0380
3821.00,0.0379
3820.50,0.0380
3820.00,0.0381
3819.50,0.0381
3819.00,0.0381
3818.50,0.0381
3818.00,0.0381
3817.50,0.0381
3817.00,0.0381
3816.50,0.0381
3816.00,0.0380
3815.50,0.0382
3815.00,0.0383
3814.50,0.0382
3814.00,0.0382
3813.50,0.0382
3813.00,0.0382
3812.50,0.0382
3812.00,0.0382
3811.50,0.0382
3811.00,0.0382
3810.50,0.0382
3810.00,0.0382
3809.50,0.0382
3809.00,0.0383
3808.50,0.0383
3808.00,0.0384
3807.50,0.0384
3807.00,0.0384
3806.50,0.0385
3806.00,0.0386
3805.50,0.0386
3805.00,0.0385
3804.50,0.0385
3804.00,0.0386
3803.50,0.0386
3803.00,0.0387
3802.50,0.0387
3802.00,0.0387
3801.50,0.0387
3801.00,0.0388
3800.50,0.0390
3800.00,0.0390
3799.50,0.0388
3799.00,0.0388
3798.50,0.0388
3798.00,0.0389
3797.50,0.0389
3797.00,0.0389
3796.50,0.0390
3796.00,0.0391
3795.50,0.0391
3795.00,0.0391
3794.50,0.0391
3794.00,0.0391
3793.50,0.0391
3793.00,0.0392
3792.50,0.0392
3792.00,0.0393
3791.50,0.0393
3791.00,0.0393
3790.50,0.0394
3790.00,0.0394
3789.50,0.0395
3789.00,0.0396
3788.50,0.0396
3788.00,0.0397
3787.50,0.0398
3787.00,0.0398
3786.50,0.0399
3786.00,0.0400
3785.50,0.0400
3785.00,0.0401
3784.50,0.0402
3784.00,0.0403
3783.50,0.0404
3783.00,0.0404
3782.50,0.0405
3782.00,0.0405
3781.50,0.0406
3781.00,0.0406
3780.50,0.0406
3780.00,0.0406
3779.50,0.0407
3779.00,0.0408
3778.50,0.0409
3778.00,0.0410
3777.50,0.0410
3777.00,0.0411
3776.50,0.0411
3776.00,0.0412
3775.50,0.0412
3775.00,0.0412
3774.50,0.0413
3774.00,0.0413
3773.50,0.0414
3773.00,0.0414
3772.50,0.0415
3772.00,0.0416
3771.50,0.0416
3771.00,0.0417
3770.50,0.0417
3770.00,0.0417
3769.50,0.0418
3769.00,0.0419
3768.50,0.0419
3768.00,0.0419
3767.50,0.0420
3767.00,0.0420
3766.50,0.0420
3766.00,0.0420
3765.50,0.0420
3765.00,0.0420
3764.50,0.0420
3764.00,0.0420
3763.50,0.0420
3763.00,0.0420
3762.50,0.0420
3762.00,0.0420
3761.50,0.0421
3761.00,0.0421
3760.50,0.0421
3760.00,0.0421
3759.50,0.0420
3759.00,0.0421
3758.50,0.0421
3758.00,0.0421
3757.50,0.0421
3757.00,0.0421
3756.50,0.0421
3756.00,0.0421
3755.50,0.0421
3755.00,0.0421
3754.50,0.0421
3754.00,0.0421
3753.50,0.0422
3753.00,0.0422
3752.50,0.0421
3752.00,0.0420
3751.50,0.0421
3751.00,0.0421
3750.50,0.0420
3750.00,0.0420
3749.50,0.0419
3749.00,0.0419
3748.50,0.0419
3748.00,0.0418
3747.50,0.0417
3747.00,0.0417
3746.50,0.0418
3746.00,0.0419
3745.50,0.0421
3745.00,0.0421
3744.50,0.0417
3744.00,0.0417
3743.50,0.0418
3743.00,0.0416
3742.50,0.0413
3742.00,0.0412
3741.50,0.0412
3741.00,0.0411
3740.50,0.0410
3740.00,0.0409
3739.50,0.0408
3739.00,0.0408
3738.50,0.0408
3738.00,0.0408
3737.50,0.0408
3737.00,0.0408
3736.50,0.0408
3736.00,0.0408
3735.50,0.0409
3735.00,0.0410
3734.50,0.0411
3734.00,0.0412
3733.50,0.0412
3733.00,0.0412
3732.50,0.0412
3732.00,0.0413
3731.50,0.0413
3731.00,0.0413
3730.50,0.0413
3730.00,0.0413
3729.50,0.0413
3729.00,0.0414
3728.50,0.0414
3728.00,0.0415
3727.50,0.0416
3727.00,0.0416
3726.50,0.0417
3726.00,0.0418
3725.50,0.0418
3725.00,0.0419
3724.50,0.0420
3724.00,0.0421
3723.50,0.0421
3723.00,0.0422
3722.50,0.0423
3722.00,0.0424
3721.50,0.0425
3721.00,0.0426
3720.50,0.0426
3720.00,0.0427
3719.50,0.0427
3719.00,0.0428
3718.50,0.0429
3718.00,0.0429
3717.50,0.0430
3717.00,0.0431
3716.50,0.0432
3716.00,0.0432
3715.50,0.0433
3715.00,0.0434
3714.50,0.0435
3714.00,0.0436
3713.50,0.0437
3713.00,0.0438
3712.50,0.0439
3712.00,0.0440
3711.50,0.0441
3711.00,0.0442
3710.50,0.0442
3710.00,0.0443
3709.50,0.0445
3709.00,0.0446
3708.50,0.0447
3708.00,0.0447
3707.50,0.0448
3707.00,0.0448
3706.50,0.0449
3706.00,0.0450
3705.50,0.0450
3705.00,0.0451
3704.50,0.0451
3704.00,0.0452
3703.50,0.0453
3703.00,0.0453
3702.50,0.0454
3702.00,0.0454
3701.50,0.0455
3701.00,0.0455
3700.50,0.0455
3700.00,0.0455
3699.50,0.0454
3699.00,0.0454
3698.50,0.0454
3698.00,0.0453
3697.50,0.0453
3697.00,0.0452
3696.50,0.0452
3696.00,0.0451
3695.50,0.0451
3695.00,0.0450
3694.50,0.0450
3694.00,0.0450
3693.50,0.0449
3693.00,0.0449
3692.50,0.0448
3692.00,0.0448
3691.50,0.0446
3691.00,0.0445
3690.50,0.0445
3690.00,0.0444
3689.50,0.0443
3689.00,0.0442
3688.50,0.0441
3688.00,0.0441
3687.50,0.0441
3687.00,0.0441
3686.50,0.0440
3686.00,0.0439
3685.50,0.0439
3685.00,0.0438
3684.50,0.0437
3684.00,0.0437
3683.50,0.0436
3683.00,0.0436
3682.50,0.0436
3682.00,0.0435
3681.50,0.0435
3681.00,0.0435
3680.50,0.0435
3680.00,0.0435
3679.50,0.0434
3679.00,0.0434
3678.50,0.0434
3678.00,0.0435
3677.50,0.0435
3677.00,0.0436
3676.50,0.0437
3676.00,0.0436
3675.50,0.0434
3675.00,0.0434
3674.50,0.0436
3674.00,0.0437
3673.50,0.0436
3673.00,0.0436
3672.50,0.0436
3672.00,0.0436
3671.50,0.0437
3671.00,0.0437
3670.50,0.0437
3670.00,0.0437
3669.50,0.0438
3669.00,0.0438
3668.50,0.0438
3668.00,0.0439
3667.50,0.0439
3667.00,0.0439
3666.50,0.0439
3666.00,0.0440
3665.50,0.0440
3665.00,0.0440
3664.50,0.0441
3664.00,0.0441
3663.50,0.0442
3663.00,0.0442
3662.50,0.0443
3662.00,0.0443
3661.50,0.0443
3661.00,0.0443
3660.50,0.0444
3660.00,0.0445
3659.50,0.0445
3659.00,0.0446
3658.50,0.0447
3658.00,0.0449
3657.50,0.0450
3657.00,0.0450
3656.50,0.0451
3656.00,0.0452
3655.50,0.0453
3655.00,0.0454
3654.50,0.0454
3654.00,0.0454
3653.50,0.0455
3653.00,0.0456
3652.50,0.0456
3652.00,0.0457
3651.50,0.0457
3651.00,0.0457
3650.50,0.0457
3650.00,0.0458
3649.50,0.0459
3649.00,0.0461
3648.50,0.0462
3648.00,0.0462
3647.50,0.0462
3647.00,0.0463
3646.50,0.0463
3646.00,0.0463
3645.50,0.0463
3645.00,0.0463
3644.50,0.0462
3644.00,0.0462
3643.50,0.0462
3643.00,0.0462
3642.50,0.0462
3642.00,0.0462
3641.50,0.0462
3641.00,0.0462
3640.50,0.0462
3640.00,0.0462
3639.50,0.0461
3639.00,0.0461
3638.50,0.0461
3638.00,0.0460
3637.50,0.0460
3637.00,0.0460
3636.50,0.0459
3636.00,0.0459
3635.50,0.0458
3635.00,0.0458
3634.50,0.0457
3634.00,0.0457
3633.50,0.0456
3633.00,0.0456
3632.50,0.0456
3632.00,0.0455
3631.50,0.0456
3631.00,0.0456
3630.50,0.0456
3630.00,0.0457
3629.50,0.0456
3629.00,0.0454
3628.50,0.0453
3628.00,0.0454
3627.50,0.0454
3627.00,0.0453
3626.50,0.0451
3626.00,0.0451
3625.50,0.0450
3625.00,0.0450
3624.50,0.0449
3624.00,0.0449
3623.50,0.0449
3623.00,0.0448
3622.50,0.0448
3622.00,0.0448
3621.50,0.0448
3621.00,0.0449
3620.50,0.0449
3620.00,0.0450
3619.50,0.0450
3619.00,0.0450
3618.50,0.0449
3618.00,0.0449
3617.50,0.0449
3617.00,0.0449
3616.50,0.0448
3616.00,0.0448
3615.50,0.0447
3615.00,0.0448
3614.50,0.0448
3614.00,0.0448
3613.50,0.0448
3613.00,0.0448
3612.50,0.0448
3612.00,0.0448
3611.50,0.0448
3611.00,0.0448
3610.50,0.0448
3610.00,0.0448
3609.50,0.0448
3609.00,0.0448
3608.50,0.0448
3608.00,0.0448
3607.50,0.0448
3607.00,0.0448
3606.50,0.0448
3606.00,0.0449
3605.50,0.0448
3605.00,0.0448
3604.50,0.0449
3604.00,0.0449
3603.50,0.0449
3603.00,0.0449
3602.50,0.0449
3602.00,0.0450
3601.50,0.0450
3601.00,0.0450
3600.50,0.0450
3600.00,0.0449
3599.50,0.0449
3599.00,0.0450
3598.50,0.0450
3598.00,0.0451
3597.50,0.0451
3597.00,0.0451
3596.50,0.0452
3596.00,0.0452
3595.50,0.0452
3595.00,0.0452
3594.50,0.0452
3594.00,0.0452
3593.50,0.0452
3593.00,0.0451
3592.50,0.0451
3592.00,0.0451
3591.50,0.0452
3591.00,0.0452
3590.50,0.0452
3590.00,0.0452
3589.50,0.0452
3589.00,0.0452
3588.50,0.0452
3588.00,0.0452
3587.50,0.0451
3587.00,0.0450
3586.50,0.0450
3586.00,0.0449
3585.50,0.0449
3585.00,0.0449
3584.50,0.0448
3584.00,0.0449
3583.50,0.0448
3583.00,0.0448
3582.50,0.0448
3582.00,0.0447
3581.50,0.0447
3581.00,0.0447
3580.50,0.0447
3580.00,0.0447
3579.50,0.0447
3579.00,0.0447
3578.50,0.0446
3578.00,0.0446
3577.50,0.0446
3577.00,0.0446
3576.50,0.0445
3576.00,0.0445
3575.50,0.0445
3575.00,0.0445
3574.50,0.0444
3574.00,0.0444
3573.50,0.0444
3573.00,0.0443
3572.50,0.0443
3572.00,0.0442
3571.50,0.0442
3571.00,0.0441
3570.50,0.0441
3570.00,0.0441
3569.50,0.0441
3569.00,0.0441
3568.50,0.0442
3568.00,0.0442
3567.50,0.0441
3567.00,0.0441
3566.50,0.0440
3566.00,0.0440
3565.50,0.0440
3565.00,0.0440
3564.50,0.0440
3564.00,0.0439
3563.50,0.0439
3563.00,0.0438
3562.50,0.0437
3562.00,0.0437
3561.50,0.0436
3561.00,0.0436
3560.50,0.0437
3560.00,0.0437
3559.50,0.0437
3559.00,0.0437
3558.50,0.0436
3558.00,0.0436
3557.50,0.0436
3557.00,0.0436
3556.50,0.0436
3556.00,0.0435
3555.50,0.0435
3555.00,0.0435
3554.50,0.0435
3554.00,0.0435
3553.50,0.0435
3553.00,0.0434
3552.50,0.0434
3552.00,0.0433
3551.50,0.0433
3551.00,0.0433
3550.50,0.0434
3550.00,0.0434
3549.50,0.0434
3549.00,0.0434
3548.50,0.0433
3548.00,0.0433
3547.50,0.0433
3547.00,0.0432
3546.50,0.0432
3546.00,0.0431
3545.50,0.0431
3545.00,0.0431
3544.50,0.0431
3544.00,0.0432
3543.50,0.0431
3543.00,0.0432
3542.50,0.0432
3542.00,0.0432
3541.50,0.0432
3541.00,0.0433
3540.50,0.0433
3540.00,0.0433
3539.50,0.0433
3539.00,0.0433
3538.50,0.0432
3538.00,0.0432
3537.50,0.0431
3537.00,0.0431
3536.50,0.0431
3536.00,0.0431
3535.50,0.0432
3535.00,0.0432
3534.50,0.0432
3534.00,0.0432
3533.50,0.0432
3533.00,0.0432
3532.50,0.0432
3532.00,0.0432
3531.50,0.0432
3531.00,0.0432
3530.50,0.0432
3530.00,0.0432
3529.50,0.0432
3529.00,0.0432
3528.50,0.0432
3528.00,0.0431
3527.50,0.0431
3527.00,0.0431
3526.50,0.0431
3526.00,0.0431
3525.50,0.0430
3525.00,0.0430
3524.50,0.0429
3524.00,0.0429
3523.50,0.0429
3523.00,0.0429
3522.50,0.0430
3522.00,0.0430
3521.50,0.0430
3521.00,0.0430
3520.50,0.0430
3520.00,0.0430
3519.50,0.0430
3519.00,0.0429
3518.50,0.0429
3518.00,0.0429
3517.50,0.0429
3517.00,0.0429
3516.50,0.0429
3516.00,0.0428
3515.50,0.0428
3515.00,0.0428
3514.50,0.0427
3514.00,0.0427
3513.50,0.0427
3513.00,0.0427
3512.50,0.0427
3512.00,0.0427
3511.50,0.0427
3511.00,0.0427
3510.50,0.0427
3510.00,0.0427
3509.50,0.0427
3509.00,0.0427
3508.50,0.0427
3508.00,0.0427
3507.50,0.0427
3507.00,0.0427
3506.50,0.0426
3506.00,0.0426
3505.50,0.0426
3505.00,0.0425
3504.50,0.0425
3504.00,0.0424
3503.50,0.0423
3503.00,0.0423
3502.50,0.0423
3502.00,0.0423
3501.50,0.0424
3501.00,0.0424
3500.50,0.0424
3500.00,0.0424
3499.50,0.0423
3499.00,0.0423
3498.50,0.0422
3498.00,0.0422
3497.50,0.0422
3497.00,0.0422
3496.50,0.0422
3496.00,0.0422
3495.50,0.0422
3495.00,0.0422
3494.50,0.0421
3494.00,0.0421
3493.50,0.0421
3493.00,0.0421
3492.50,0.0421
3492.00,0.0421
3491.50,0.0421
3491.00,0.0421
3490.50,0.0421
3490.00,0.0420
3489.50,0.0420
3489.00,0.0420
3488.50,0.0419
3488.00,0.0419
3487.50,0.0419
3487.00,0.0419
3486.50,0.0419
3486.00,0.0419
3485.50,0.0419
3485.00,0.0419
3484.50,0.0419
3484.00,0.0419
3483.50,0.0419
3483.00,0.0419
3482.50,0.0418
3482.00,0.0418
3481.50,0.0418
3481.00,0.0417
3480.50,0.0416
3480.00,0.0416
3479.50,0.0416
3479.00,0.0416
3478.50,0.0416
3478.00,0.0417
3477.50,0.0417
3477.00,0.0417
3476.50,0.0416
3476.00,0.0416
3475.50,0.0416
3475.00,0.0415
3474.50,0.0415
3474.00,0.0416
3473.50,0.0416
3473.00,0.0415
3472.50,0.0415
3472.00,0.0415
3471.50,0.0414
3471.00,0.0413
3470.50,0.0413
3470.00,0.0412
3469.50,0.0412
3469.00,0.0411
3468.50,0.0411
3468.00,0.0411
3467.50,0.0411
3467.00,0.0411
3466.50,0.0411
3466.00,0.0412
3465.50,0.0412
3465.00,0.0412
3464.50,0.0412
3464.00,0.0412
3463.50,0.0412
3463.00,0.0412
3462.50,0.0412
3462.00,0.0411
3461.50,0.0411
3461.00,0.0410
3460.50,0.0410
3460.00,0.0410
3459.50,0.0410
3459.00,0.0410
3458.50,0.0410
3458.00,0.0410
3457.50,0.0410
3457.00,0.0410
3456.50,0.0410
3456.00,0.0409
3455.50,0.0409
3455.00,0.0409
3454.50,0.0409
3454.00,0.0409
3453.50,0.0409
3453.00,0.0409
3452.50,0.0408
3452.00,0.0408
3451.50,0.0408
3451.00,0.0408
3450.50,0.0408
3450.00,0.0408
3449.50,0.0407
3449.00,0.0407
3448.50,0.0407
3448.00,0.0406
3447.50,0.0406
3447.00,0.0406
3446.50,0.0406
3446.00,0.0406
3445.50,0.0406
3445.00,0.0406
3444.50,0.0406
3444.00,0.0405
3443.50,0.0405
3443.00,0.0405
3442.50,0.0405
3442.00,0.0404
3441.50,0.0404
3441.00,0.0404
3440.50,0.0404
3440.00,0.0404
3439.50,0.0403
3439.00,0.0403
3438.50,0.0402
3438.00,0.0401
3437.50,0.0401
3437.00,0.0401
3436.50,0.0400
3436.00,0.0400
3435.50,0.0400
3435.00,0.0400
3434.50,0.0400
3434.00,0.0400
3433.50,0.0401
3433.00,0.0401
3432.50,0.0400
3432.00,0.0400
3431.50,0.0400
3431.00,0.0399
3430.50,0.0399
3430.00,0.0399
3429.50,0.0399
3429.00,0.0399
3428.50,0.0399
3428.00,0.0399
3427.50,0.0400
3427.00,0.0400
3426.50,0.0400
3426.00,0.0400
3425.50,0.0400
3425.00,0.0399
3424.50,0.0399
3424.00,0.0399
3423.50,0.0399
3423.00,0.0399
3422.50,0.0399
3422.00,0.0398
3421.50,0.0398
3421.00,0.0398
3420.50,0.0398
3420.00,0.0398
3419.50,0.0398
3419.00,0.0398
3418.50,0.0398
3418.00,0.0398
3417.50,0.0398
3417.00,0.0398
3416.50,0.0397
3416.00,0.0397
3415.50,0.0397
3415.00,0.0396
3414.50,0.0396
3414.00,0.0396
3413.50,0.0395
3413.00,0.0395
3412.50,0.0395
3412.00,0.0395
3411.50,0.0395
3411.00,0.0395
3410.50,0.0395
3410.00,0.0395
3409.50,0.0394
3409.00,0.0394
3408.50,0.0394
3408.00,0.0395
3407.50,0.0395
3407.00,0.0395
3406.50,0.0395
3406.00,0.0394
3405.50,0.0394
3405.00,0.0394
3404.50,0.0394
3404.00,0.0394
3403.50,0.0393
3403.00,0.0392
3402.50,0.0392
3402.00,0.0391
3401.50,0.0391
3401.00,0.0391
3400.50,0.0391
3400.00,0.0391
3399.50,0.0391
3399.00,0.0391
3398.50,0.0392
3398.00,0.0392
3397.50,0.0392
3397.00,0.0392
3396.50,0.0392
3396.00,0.0392
3395.50,0.0392
3395.00,0.0391
3394.50,0.0391
3394.00,0.0391
3393.50,0.0391
3393.00,0.0390
3392.50,0.0390
3392.00,0.0390
3391.50,0.0390
3391.00,0.0390
3390.50,0.0390
3390.00,0.0391
3389.50,0.0391
3389.00,0.0391
3388.50,0.0392
3388.00,0.0392
3387.50,0.0392
3387.00,0.0391
3386.50,0.0391
3386.00,0.0391
3385.50,0.0391
3385.00,0.0391
3384.50,0.0391
3384.00,0.0391
3383.50,0.0391
3383.00,0.0391
3382.50,0.0391
3382.00,0.0390
3381.50,0.0390
3381.00,0.0390
3380.50,0.0390
3380.00,0.0390
3379.50,0.0390
3379.00,0.0390
3378.50,0.0390
3378.00,0.0390
3377.50,0.0390
3377.00,0.0389
3376.50,0.0389
3376.00,0.0389
3375.50,0.0390
3375.00,0.0390
3374.50,0.0390
3374.00,0.0390
3373.50,0.0390
3373.00,0.0389
3372.50,0.0389
3372.00,0.0389
3371.50,0.0388
3371.00,0.0388
3370.50,0.0387
3370.00,0.0387
3369.50,0.0387
3369.00,0.0387
3368.50,0.0387
3368.00,0.0387
3367.50,0.0387
3367.00,0.0388
3366.50,0.0388
3366.00,0.0388
3365.50,0.0389
3365.00,0.0389
3364.50,0.0389
3364.00,0.0389
3363.50,0.0390
3363.00,0.0389
3362.50,0.0389
3362.00,0.0389
3361.50,0.0389
3361.00,0.0389
3360.50,0.0389
3360.00,0.0389
3359.50,0.0389
3359.00,0.0389
3358.50,0.0389
3358.00,0.0389
3357.50,0.0389
3357.00,0.0389
3356.50,0.0389
3356.00,0.0389
3355.50,0.0389
3355.00,0.0389
3354.50,0.0389
3354.00,0.0389
3353.50,0.0389
3353.00,0.0388
3352.50,0.0388
3352.00,0.0387
3351.50,0.0387
3351.00,0.0387
3350.50,0.0387
3350.00,0.0387
3349.50,0.0387
3349.00,0.0388
3348.50,0.0388
3348.00,0.0389
3347.50,0.0389
3347.00,0.0389
3346.50,0.0389
3346.00,0.0388
3345.50,0.0388
3345.00,0.0388
3344.50,0.0388
3344.00,0.0387
3343.50,0.0387
3343.00,0.0387
3342.50,0.0387
3342.00,0.0387
3341.50,0.0388
3341.00,0.0388
3340.50,0.0387
3340.00,0.0387
3339.50,0.0386
3339.00,0.0386
3338.50,0.0386
3338.00,0.0386
3337.50,0.0386
3337.00,0.0386
3336.50,0.0387
3336.00,0.0387
3335.50,0.0387
3335.00,0.0388
3334.50,0.0388
3334.00,0.0388
3333.50,0.0388
3333.00,0.0388
3332.50,0.0387
3332.00,0.0387
3331.50,0.0387
3331.00,0.0387
3330.50,0.0387
3330.00,0.0387
3329.50,0.0387
3329.00,0.0387
3328.50,0.0387
3328.00,0.0387
3327.50,0.0386
3327.00,0.0386
3326.50,0.0385
3326.00,0.0385
3325.50,0.0385
3325.00,0.0385
3324.50,0.0386
3324.00,0.0386
3323.50,0.0386
3323.00,0.0386
3322.50,0.0386
3322.00,0.0386
3321.50,0.0386
3321.00,0.0386
3320.50,0.0386
3320.00,0.0386
3319.50,0.0386
3319.00,0.0386
3318.50,0.0386
3318.00,0.0386
3317.50,0.0386
3317.00,0.0386
3316.50,0.0386
3316.00,0.0386
3315.50,0.0385
3315.00,0.0385
3314.50,0.0385
3314.00,0.0385
3313.50,0.0385
3313.00,0.0385
3312.50,0.0385
3312.00,0.0385
3311.50,0.0385
3311.00,0.0384
3310.50,0.0384
3310.00,0.0383
3309.50,0.0383
3309.00,0.0383
3308.50,0.0383
3308.00,0.0383
3307.50,0.0382
3307.00,0.0382
3306.50,0.0382
3306.00,0.0382
3305.50,0.0382
3305.00,0.0382
3304.50,0.0383
3304.00,0.0383
3303.50,0.0384
3303.00,0.0384
3302.50,0.0384
3302.00,0.0384
3301.50,0.0385
3301.00,0.0385
3300.50,0.0385
3300.00,0.0385
3299.50,0.0385
3299.00,0.0384
3298.50,0.0384
3298.00,0.0384
3297.50,0.0383
3297.00,0.0383
3296.50,0.0383
3296.00,0.0382
3295.50,0.0382
3295.00,0.0382
3294.50,0.0383
3294.00,0.0383
3293.50,0.0382
3293.00,0.0382
3292.50,0.0382
3292.00,0.0382
3291.50,0.0382
3291.00,0.0383
3290.50,0.0383
3290.00,0.0383
3289.50,0.0384
3289.00,0.0384
3288.50,0.0384
3288.00,0.0384
3287.50,0.0384
3287.00,0.0384
3286.50,0.0384
3286.00,0.0384
3285.50,0.0384
3285.00,0.0384
3284.50,0.0384
3284.00,0.0384
3283.50,0.0384
3283.00,0.0384
3282.50,0.0384
3282.00,0.0384
3281.50,0.0384
3281.00,0.0384
3280.50,0.0384
3280.00,0.0384
3279.50,0.0384
3279.00,0.0384
3278.50,0.0384
3278.00,0.0384
3277.50,0.0384
3277.00,0.0383
3276.50,0.0383
3276.00,0.0383
3275.50,0.0382
3275.00,0.0382
3274.50,0.0383
3274.00,0.0383
3273.50,0.0383
3273.00,0.0383
3272.50,0.0382
3272.00,0.0382
3271.50,0.0382
3271.00,0.0381
3270.50,0.0382
3270.00,0.0382
3269.50,0.0382
3269.00,0.0382
3268.50,0.0383
3268.00,0.0383
3267.50,0.0384
3267.00,0.0384
3266.50,0.0384
3266.00,0.0384
3265.50,0.0384
3265.00,0.0384
3264.50,0.0384
3264.00,0.0384
3263.50,0.0384
3263.00,0.0384
3262.50,0.0384
3262.00,0.0384
3261.50,0.0384
3261.00,0.0384
3260.50,0.0384
3260.00,0.0384
3259.50,0.0384
3259.00,0.0384
3258.50,0.0384
3258.00,0.0384
3257.50,0.0384
3257.00,0.0383
3256.50,0.0383
3256.00,0.0383
3255.50,0.0383
3255.00,0.0383
3254.50,0.0384
3254.00,0.0384
3253.50,0.0384
3253.00,0.0384
3252.50,0.0384
3252.00,0.0384
3251.50,0.0384
3251.00,0.0385
3250.50,0.0384
3250.00,0.0384
3249.50,0.0384
3249.00,0.0384
3248.50,0.0384
3248.00,0.0383
3247.50,0.0383
3247.00,0.0383
3246.50,0.0383
3246.00,0.0384
3245.50,0.0384
3245.00,0.0384
3244.50,0.0385
3244.00,0.0385
3243.50,0.0385
3243.00,0.0385
3242.50,0.0385
3242.00,0.0385
3241.50,0.0385
3241.00,0.0385
3240.50,0.0385
3240.00,0.0385
3239.50,0.0385
3239.00,0.0385
3238.50,0.0385
3238.00,0.0385
3237.50,0.0385
3237.00,0.0385
3236.50,0.0385
3236.00,0.0385
3235.50,0.0385
3235.00,0.0384
3234.50,0.0384
3234.00,0.0384
3233.50,0.0384
3233.00,0.0384
3232.50,0.0384
3232.00,0.0385
3231.50,0.0385
3231.00,0.0386
3230.50,0.0386
3230.00,0.0386
3229.50,0.0386
3229.00,0.0386
3228.50,0.0387
3228.00,0.0387
3227.50,0.0387
3227.00,0.0387
3226.50,0.0387
3226.00,0.0387
3225.50,0.0387
3225.00,0.0387
3224.50,0.0387
3224.00,0.0387
3223.50,0.0387
3223.00,0.0387
3222.50,0.0387
3222.00,0.0387
3221.50,0.0388
3221.00,0.0388
3220.50,0.0388
3220.00,0.0387
3219.50,0.0387
3219.00,0.0387
3218.50,0.0387
3218.00,0.0388
3217.50,0.0388
3217.00,0.0388
3216.50,0.0388
3216.00,0.0388
3215.50,0.0388
3215.00,0.0388
3214.50,0.0388
3214.00,0.0388
3213.50,0.0388
3213.00,0.0389
3212.50,0.0389
3212.00,0.0389
3211.50,0.0389
3211.00,0.0389
3210.50,0.0389
3210.00,0.0389
3209.50,0.0389
3209.00,0.0389
3208.50,0.0389
3208.00,0.0389
3207.50,0.0389
3207.00,0.0389
3206.50,0.0389
3206.00,0.0389
3205.50,0.0390
3205.00,0.0390
3204.50,0.0390
3204.00,0.0390
3203.50,0.0390
3203.00,0.0390
3202.50,0.0390
3202.00,0.0391
3201.50,0.0391
3201.00,0.0391
3200.50,0.0391
3200.00,0.0391
3199.50,0.0391
3199.00,0.0392
3198.50,0.0392
3198.00,0.0392
3197.50,0.0392
3197.00,0.0392
3196.50,0.0393
3196.00,0.0393
3195.50,0.0393
3195.00,0.0393
3194.50,0.0393
3194.00,0.0393
3193.50,0.0394
3193.00,0.0394
3192.50,0.0394
3192.00,0.0394
3191.50,0.0394
3191.00,0.0394
3190.50,0.0395
3190.00,0.0395
3189.50,0.0395
3189.00,0.0395
3188.50,0.0395
3188.00,0.0396
3187.50,0.0396
3187.00,0.0396
3186.50,0.0396
3186.00,0.0397
3185.50,0.0397
3185.00,0.0397
3184.50,0.0397
3184.00,0.0397
3183.50,0.0397
3183.00,0.0397
3182.50,0.0397
3182.00,0.0397
3181.50,0.0397
3181.00,0.0397
3180.50,0.0397
3180.00,0.0397
3179.50,0.0396
3179.00,0.0396
3178.50,0.0397
3178.00,0.0397
3177.50,0.0397
3177.00,0.0397
3176.50,0.0397
3176.00,0.0397
3175.50,0.0397
3175.00,0.0397
3174.50,0.0397
3174.00,0.0397
3173.50,0.0397
3173.00,0.0397
3172.50,0.0397
3172.00,0.0397
3171.50,0.0398
3171.00,0.0398
3170.50,0.0398
3170.00,0.0398
3169.50,0.0398
3169.00,0.0398
3168.50,0.0398
3168.00,0.0399
3167.50,0.0399
3167.00,0.0399
3166.50,0.0399
3166.00,0.0399
3165.50,0.0400
3165.00,0.0400
3164.50,0.0400
3164.00,0.0400
3163.50,0.0401
3163.00,0.0401
3162.50,0.0401
3162.00,0.0401
3161.50,0.0401
3161.00,0.0402
3160.50,0.0402
3160.00,0.0402
3159.50,0.0403
3159.00,0.0403
3158.50,0.0403
3158.00,0.0403
3157.50,0.0403
3157.00,0.0404
3156.50,0.0404
3156.00,0.0404
3155.50,0.0404
3155.00,0.0404
3154.50,0.0404
3154.00,0.0404
3153.50,0.0404
3153.00,0.0404
3152.50,0.0404
3152.00,0.0404
3151.50,0.0405
3151.00,0.0406
3150.50,0.0407
3150.00,0.0407
3149.50,0.0408
3149.00,0.0408
3148.50,0.0409
3148.00,0.0409
3147.50,0.0410
3147.00,0.0410
3146.50,0.0410
3146.00,0.0411
3145.50,0.0411
3145.00,0.0412
3144.50,0.0412
3144.00,0.0412
3143.50,0.0413
3143.00,0.0413
3142.50,0.0414
3142.00,0.0414
3141.50,0.0414
3141.00,0.0414
3140.50,0.0414
3140.00,0.0414
3139.50,0.0415
3139.00,0.0415
3138.50,0.0416
3138.00,0.0417
3137.50,0.0418
3137.00,0.0419
3136.50,0.0420
3136.00,0.0421
3135.50,0.0421
3135.00,0.0422
3134.50,0.0423
3134.00,0.0423
3133.50,0.0424
3133.00,0.0425
3132.50,0.0425
3132.00,0.0426
3131.50,0.0426
3131.00,0.0426
3130.50,0.0426
3130.00,0.0427
3129.50,0.0428
3129.00,0.0429
3128.50,0.0430
3128.00,0.0430
3127.50,0.0431
3127.00,0.0432
3126.50,0.0432
3126.00,0.0433
3125.50,0.0434
3125.00,0.0434
3124.50,0.0435
3124.00,0.0435
3123.50,0.0436
3123.00,0.0436
3122.50,0.0436
3122.00,0.0436
3121.50,0.0436
3121.00,0.0436
3120.50,0.0436
3120.00,0.0437
3119.50,0.0437
3119.00,0.0438
3118.50,0.0439
3118.00,0.0439
3117.50,0.0439
3117.00,0.0439
3116.50,0.0440
3116.00,0.0440
3115.50,0.0441
3115.00,0.0442
3114.50,0.0442
3114.00,0.0443
3113.50,0.0444
3113.00,0.0445
3112.50,0.0445
3112.00,0.0445
3111.50,0.0446
3111.00,0.0446
3110.50,0.0446
3110.00,0.0445
3109.50,0.0445
3109.00,0.0445
3108.50,0.0445
3108.00,0.0446
3107.50,0.0446
3107.00,0.0447
3106.50,0.0447
3106.00,0.0448
3105.50,0.0448
3105.00,0.0448
3104.50,0.0448
3104.00,0.0448
3103.50,0.0448
3103.00,0.0448
3102.50,0.0448
3102.00,0.0448
3101.50,0.0448
3101.00,0.0447
3100.50,0.0447
3100.00,0.0447
3099.50,0.0447
3099.00,0.0448
3098.50,0.0448
3098.00,0.0448
3097.50,0.0449
3097.00,0.0449
3096.50,0.0449
3096.00,0.0449
3095.50,0.0449
3095.00,0.0449
3094.50,0.0449
3094.00,0.0449
3093.50,0.0449
3093.00,0.0449
3092.50,0.0448
3092.00,0.0448
3091.50,0.0448
3091.00,0.0447
3090.50,0.0447
3090.00,0.0447
3089.50,0.0448
3089.00,0.0448
3088.50,0.0448
3088.00,0.0448
3087.50,0.0448
3087.00,0.0448
3086.50,0.0449
3086.00,0.0449
3085.50,0.0449
3085.00,0.0448
3084.50,0.0449
3084.00,0.0449
3083.50,0.0449
3083.00,0.0450
3082.50,0.0450
3082.00,0.0450
3081.50,0.0450
3081.00,0.0450
3080.50,0.0450
3080.00,0.0451
3079.50,0.0451
3079.00,0.0451
3078.50,0.0452
3078.00,0.0452
3077.50,0.0453
3077.00,0.0454
3076.50,0.0454
3076.00,0.0455
3075.50,0.0456
3075.00,0.0457
3074.50,0.0457
3074.00,0.0458
3073.50,0.0459
3073.00,0.0459
3072.50,0.0460
3072.00,0.0460
3071.50,0.0460
3071.00,0.0461
3070.50,0.0462
3070.00,0.0462
3069.50,0.0463
3069.00,0.0463
3068.50,0.0463
3068.00,0.0464
3067.50,0.0464
3067.00,0.0465
3066.50,0.0466
3066.00,0.0468
3065.50,0.0470
3065.00,0.0471
3064.50,0.0472
3064.00,0.0473
3063.50,0.0475
3063.00,0.0476
3062.50,0.0478
3062.00,0.0480
3061.50,0.0482
3061.00,0.0483
3060.50,0.0485
3060.00,0.0487
3059.50,0.0489
3059.00,0.0491
3058.50,0.0492
3058.00,0.0494
3057.50,0.0496
3057.00,0.0498
3056.50,0.0500
3056.00,0.0501
3055.50,0.0503
3055.00,0.0504
3054.50,0.0505
3054.00,0.0507
3053.50,0.0508
3053.00,0.0508
3052.50,0.0508
3052.00,0.0507
3051.50,0.0506
3051.00,0.0504
3050.50,0.0503
3050.00,0.0502
3049.50,0.0501
3049.00,0.0499
3048.50,0.0497
3048.00,0.0495
3047.50,0.0492
3047.00,0.0490
3046.50,0.0487
3046.00,0.0485
3045.50,0.0483
3045.00,0.0482
3044.50,0.0480
3044.00,0.0479
3043.50,0.0478
3043.00,0.0477
3042.50,0.0476
3042.00,0.0475
3041.50,0.0475
3041.00,0.0474
3040.50,0.0474
3040.00,0.0474
3039.50,0.0474
3039.00,0.0474
3038.50,0.0474
3038.00,0.0474
3037.50,0.0473
3037.00,0.0473
3036.50,0.0472
3036.00,0.0472
3035.50,0.0471
3035.00,0.0471
3034.50,0.0471
3034.00,0.0471
3033.50,0.0471
3033.00,0.0472
3032.50,0.0472
3032.00,0.0473
3031.50,0.0473
3031.00,0.0473
3030.50,0.0474
3030.00,0.0474
3029.50,0.0475
3029.00,0.0476
3028.50,0.0476
3028.00,0.0477
3027.50,0.0478
3027.00,0.0478
3026.50,0.0479
3026.00,0.0479
3025.50,0.0480
3025.00,0.0480
3024.50,0.0481
3024.00,0.0483
3023.50,0.0484
3023.00,0.0486
3022.50,0.0487
3022.00,0.0489
3021.50,0.0490
3021.00,0.0491
3020.50,0.0492
3020.00,0.0494
3019.50,0.0495
3019.00,0.0497
3018.50,0.0499
3018.00,0.0500
3017.50,0.0501
3017.00,0.0502
3016.50,0.0503
3016.00,0.0505
3015.50,0.0506
3015.00,0.0506
3014.50,0.0507
3014.00,0.0508
3013.50,0.0509
3013.00,0.0511
3012.50,0.0512
3012.00,0.0513
3011.50,0.0514
3011.00,0.0515
3010.50,0.0517
3010.00,0.0518
3009.50,0.0520
3009.00,0.0522
3008.50,0.0524
3008.00,0.0526
3007.50,0.0528
3007.00,0.0530
3006.50,0.0532
3006.00,0.0534
3005.50,0.0536
3005.00,0.0538
3004.50,0.0541
3004.00,0.0544
3003.50,0.0547
3003.00,0.0550
3002.50,0.0554
3002.00,0.0557
3001.50,0.0561
3001.00,0.0565
3000.50,0.0569
3000.00,0.0573
2999.50,0.0577
2999.00,0.0582
2998.50,0.0586
2998.00,0.0591
2997.50,0.0597
2997.00,0.0603
2996.50,0.0610
2996.00,0.0616
2995.50,0.0623
2995.00,0.0630
2994.50,0.0638
2994.00,0.0645
2993.50,0.0654
2993.00,0.0662
2992.50,0.0672
2992.00,0.0682
2991.50,0.0693
2991.00,0.0704
2990.50,0.0716
2990.00,0.0729
2989.50,0.0742
2989.00,0.0756
2988.50,0.0771
2988.00,0.0787
2987.50,0.0804
2987.00,0.0823
2986.50,0.0842
2986.00,0.0862
2985.50,0.0884
2985.00,0.0907
2984.50,0.0932
2984.00,0.0959
2983.50,0.0987
2983.00,0.1017
2982.50,0.1049
2982.00,0.1084
2981.50,0.1121
2981.00,0.1161
2980.50,0.1205
2980.00,0.1251
2979.50,0.1301
2979.00,0.1354
2978.50,0.1412
2978.00,0.1475
2977.50,0.1542
2977.00,0.1614
2976.50,0.1691
2976.00,0.1773
2975.50,0.1861
2975.00,0.1956
2974.50,0.2057
2974.00,0.2166
2973.50,0.2281
2973.00,0.2404
2972.50,0.2533
2972.00,0.2670
2971.50,0.2813
2971.00,0.2962
2970.50,0.3117
2970.00,0.3278
2969.50,0.3442
2969.00,0.3608
2968.50,0.3776
2968.00,0.3943
2967.50,0.4107
2967.00,0.4264
2966.50,0.4414
2966.00,0.4552
2965.50,0.4675
2965.00,0.4780
2964.50,0.4864
2964.00,0.4925
2963.50,0.4960
2963.00,0.4968
2962.50,0.4949
2962.00,0.4903
2961.50,0.4831
2961.00,0.4733
2960.50,0.4614
2960.00,0.4477
2959.50,0.4323
2959.00,0.4158
2958.50,0.3985
2958.00,0.3808
2957.50,0.3629
2957.00,0.3451
2956.50,0.3277
2956.00,0.3109
2955.50,0.2947
2955.00,0.2792
2954.50,0.2646
2954.00,0.2508
2953.50,0.2379
2953.00,0.2259
2952.50,0.2148
2952.00,0.2046
2951.50,0.1952
2951.00,0.1865
2950.50,0.1784
2950.00,0.1708
2949.50,0.1638
2949.00,0.1573
2948.50,0.1512
2948.00,0.1455
2947.50,0.1402
2947.00,0.1353
2946.50,0.1307
2946.00,0.1265
2945.50,0.1226
2945.00,0.1189
2944.50,0.1154
2944.00,0.1122
2943.50,0.1093
2943.00,0.1066
2942.50,0.1041
2942.00,0.1017
2941.50,0.0995
2941.00,0.0974
2940.50,0.0955
2940.00,0.0936
2939.50,0.0919
2939.00,0.0903
2938.50,0.0887
2938.00,0.0873
2937.50,0.0859
2937.00,0.0846
2936.50,0.0834
2936.00,0.0823
2935.50,0.0812
2935.00,0.0802
2934.50,0.0793
2934.00,0.0784
2933.50,0.0775
2933.00,0.0768
2932.50,0.0760
2932.00,0.0753
2931.50,0.0746
2931.00,0.0740
2930.50,0.0733
2930.00,0.0728
2929.50,0.0724
2929.00,0.0720
2928.50,0.0716
2928.00,0.0713
2927.50,0.0710
2927.00,0.0707
2926.50,0.0705
2926.00,0.0703
2925.50,0.0701
2925.00,0.0699
2924.50,0.0698
2924.00,0.0698
2923.50,0.0698
2923.00,0.0698
2922.50,0.0698
2922.00,0.0700
2921.50,0.0701
2921.00,0.0703
2920.50,0.0705
2920.00,0.0707
2919.50,0.0710
2919.00,0.0714
2918.50,0.0718
2918.00,0.0724
2917.50,0.0730
2917.00,0.0736
2916.50,0.0744
2916.00,0.0752
2915.50,0.0761
2915.00,0.0771
2914.50,0.0781
2914.00,0.0793
2913.50,0.0806
2913.00,0.0820
2912.50,0.0835
2912.00,0.0851
2911.50,0.0867
2911.00,0.0883
2910.50,0.0901
2910.00,0.0918
2909.50,0.0935
2909.00,0.0952
2908.50,0.0968
2908.00,0.0984
2907.50,0.0997
2907.00,0.1009
2906.50,0.1019
2906.00,0.1027
2905.50,0.1032
2905.00,0.1035
2904.50,0.1035
2904.00,0.1032
2903.50,0.1027
2903.00,0.1020
2902.50,0.1011
2902.00,0.0999
2901.50,0.0986
2901.00,0.0972
2900.50,0.0956
2900.00,0.0939
2899.50,0.0922
2899.00,0.0905
2898.50,0.0887
2898.00,0.0870
2897.50,0.0852
2897.00,0.0835
2896.50,0.0818
2896.00,0.0802
2895.50,0.0787
2895.00,0.0773
2894.50,0.0759
2894.00,0.0746
2893.50,0.0733
2893.00,0.0721
2892.50,0.0710
2892.00,0.0699
2891.50,0.0689
2891.00,0.0679
2890.50,0.0670
2890.00,0.0662
2889.50,0.0654
2889.00,0.0646
2888.50,0.0638
2888.00,0.0631
2887.50,0.0625
2887.00,0.0619
2886.50,0.0613
2886.00,0.0607
2885.50,0.0602
2885.00,0.0597
2884.50,0.0592
2884.00,0.0587
2883.50,0.0583
2883.00,0.0579
2882.50,0.0575
2882.00,0.0571
2881.50,0.0567
2881.00,0.0564
2880.50,0.0560
2880.00,0.0557
2879.50,0.0554
2879.00,0.0551
2878.50,0.0548
2878.00,0.0545
2877.50,0.0542
2877.00,0.0540
2876.50,0.0537
2876.00,0.0534
2875.50,0.0531
2875.00,0.0529
2874.50,0.0526
2874.00,0.0523
2873.50,0.0521
2873.00,0.0519
2872.50,0.0517
2872.00,0.0516
2871.50,0.0514
2871.00,0.0512
2870.50,0.0511
2870.00,0.0509
2869.50,0.0508
2869.00,0.0506
2868.50,0.0504
2868.00,0.0503
2867.50,0.0501
2867.00,0.0500
2866.50,0.0498
2866.00,0.0497
2865.50,0.0496
2865.00,0.0495
2864.50,0.0494
2864.00,0.0493
2863.50,0.0492
2863.00,0.0491
2862.50,0.0490
2862.00,0.0489
2861.50,0.0488
2861.00,0.0487
2860.50,0.0486
2860.00,0.0485
2859.50,0.0485
2859.00,0.0484
2858.50,0.0484
2858.00,0.0484
2857.50,0.0484
2857.00,0.0483
2856.50,0.0483
2856.00,0.0482
2855.50,0.0482
2855.00,0.0482
2854.50,0.0482
2854.00,0.0481
2853.50,0.0481
2853.00,0.0481
2852.50,0.0480
2852.00,0.0480
2851.50,0.0480
2851.00,0.0480
2850.50,0.0479
2850.00,0.0479
2849.50,0.0478
2849.00,0.0478
2848.50,0.0477
2848.00,0.0476
2847.50,0.0476
2847.00,0.0476
2846.50,0.0476
2846.00,0.0475
2845.50,0.0475
2845.00,0.0474
2844.50,0.0474
2844.00,0.0473
2843.50,0.0473
2843.00,0.0472
2842.50,0.0472
2842.00,0.0472
2841.50,0.0471
2841.00,0.0470
2840.50,0.0470
2840.00,0.0469
2839.50,0.0468
2839.00,0.0467
2838.50,0.0467
2838.00,0.0467
2837.50,0.0467
2837.00,0.0467
2836.50,0.0466
2836.00,0.0466
2835.50,0.0465
2835.00,0.0464
2834.50,0.0464
2834.00,0.0463
2833.50,0.0463
2833.00,0.0462
2832.50,0.0462
2832.00,0.0461
2831.50,0.0460
2831.00,0.0460
2830.50,0.0459
2830.00,0.0459
2829.50,0.0459
2829.00,0.0458
2828.50,0.0458
2828.00,0.0458
2827.50,0.0457
2827.00,0.0457
2826.50,0.0457
2826.00,0.0457
2825.50,0.0456
2825.00,0.0456
2824.50,0.0456
2824.00,0.0456
2823.50,0.0456
2823.00,0.0456
2822.50,0.0457
2822.00,0.0457
2821.50,0.0457
2821.00,0.0457
2820.50,0.0457
2820.00,0.0458
2819.50,0.0458
2819.00,0.0458
2818.50,0.0459
2818.00,0.0459
2817.50,0.0459
2817.00,0.0459
2816.50,0.0460
2816.00,0.0460
2815.50,0.0460
2815.00,0.0461
2814.50,0.0461
2814.00,0.0461
2813.50,0.0461
2813.00,0.0461
2812.50,0.0461
2812.00,0.0461
2811.50,0.0461
2811.00,0.0461
2810.50,0.0460
2810.00,0.0460
2809.50,0.0460
2809.00,0.0460
2808.50,0.0461
2808.00,0.0460
2807.50,0.0460
2807.00,0.0460
2806.50,0.0460
2806.00,0.0460
2805.50,0.0460
2805.00,0.0459
2804.50,0.0459
2804.00,0.0459
2803.50,0.0459
2803.00,0.0459
2802.50,0.0458
2802.00,0.0458
2801.50,0.0458
2801.00,0.0458
2800.50,0.0457
2800.00,0.0457
2799.50,0.0456
2799.00,0.0456
2798.50,0.0455
2798.00,0.0455
2797.50,0.0455
2797.00,0.0455
2796.50,0.0454
2796.00,0.0454
2795.50,0.0453
2795.00,0.0453
2794.50,0.0452
2794.00,0.0452
2793.50,0.0451
2793.00,0.0450
2792.50,0.0449
2792.00,0.0447
2791.50,0.0446
2791.00,0.0445
2790.50,0.0444
2790.00,0.0442
2789.50,0.0440
2789.00,0.0438
2788.50,0.0437
2788.00,0.0435
2787.50,0.0434
2787.00,0.0432
2786.50,0.0430
2786.00,0.0428
2785.50,0.0427
2785.00,0.0425
2784.50,0.0423
2784.00,0.0421
2783.50,0.0419
2783.00,0.0417
2782.50,0.0415
2782.00,0.0414
2781.50,0.0412
2781.00,0.0410
2780.50,0.0409
2780.00,0.0407
2779.50,0.0405
2779.00,0.0404
2778.50,0.0402
2778.00,0.0401
2777.50,0.0400
2777.00,0.0398
2776.50,0.0396
2776.00,0.0395
2775.50,0.0393
2775.00,0.0392
2774.50,0.0391
2774.00,0.0391
2773.50,0.0390
2773.00,0.0389
2772.50,0.0388
2772.00,0.0387
2771.50,0.0386
2771.00,0.0386
2770.50,0.0385
2770.00,0.0384
2769.50,0.0383
2769.00,0.0382
2768.50,0.0382
2768.00,0.0381
2767.50,0.0380
2767.00,0.0380
2766.50,0.0379
2766.00,0.0378
2765.50,0.0378
2765.00,0.0377
2764.50,0.0377
2764.00,0.0376
2763.50,0.0376
2763.00,0.0375
2762.50,0.0375
2762.00,0.0374
2761.50,0.0374
2761.00,0.0373
2760.50,0.0373
2760.00,0.0372
2759.50,0.0372
2759.00,0.0372
2758.50,0.0371
2758.00,0.0371
2757.50,0.0371
2757.00,0.0370
2756.50,0.0370
2756.00,0.0369
2755.50,0.0369
2755.00,0.0369
2754.50,0.0369
2754.00,0.0369
2753.50,0.0368
2753.00,0.0368
2752.50,0.0368
2752.00,0.0367
2751.50,0.0367
2751.00,0.0366
2750.50,0.0366
2750.00,0.0366
2749.50,0.0365
2749.00,0.0365
2748.50,0.0365
2748.00,0.0364
2747.50,0.0364
2747.00,0.0364
2746.50,0.0364
2746.00,0.0364
2745.50,0.0364
2745.00,0.0364
2744.50,0.0363
2744.00,0.0363
2743.50,0.0363
2743.00,0.0363
2742.50,0.0363
2742.00,0.0362
2741.50,0.0362
2741.00,0.0362
2740.50,0.0362
2740.00,0.0362
2739.50,0.0361
2739.00,0.0361
2738.50,0.0361
2738.00,0.0360
2737.50,0.0360
2737.00,0.0360
2736.50,0.0360
2736.00,0.0360
2735.50,0.0360
2735.00,0.0360
2734.50,0.0360
2734.00,0.0360
2733.50,0.0360
2733.00,0.0360
2732.50,0.0360
2732.00,0.0360
2731.50,0.0359
2731.00,0.0359
2730.50,0.0359
2730.00,0.0359
2729.50,0.0359
2729.00,0.0359
2728.50,0.0359
2728.00,0.0358
2727.50,0.0358
2727.00,0.0357
2726.50,0.0357
2726.00,0.0357
2725.50,0.0357
2725.00,0.0358
2724.50,0.0358
2724.00,0.0358
2723.50,0.0358
2723.00,0.0357
2722.50,0.0357
2722.00,0.0357
2721.50,0.0357
2721.00,0.0358
2720.50,0.0358
2720.00,0.0358
2719.50,0.0358
2719.00,0.0358
2718.50,0.0358
2718.00,0.0358
2717.50,0.0357
2717.00,0.0357
2716.50,0.0357
2716.00,0.0357
2715.50,0.0357
2715.00,0.0357
2714.50,0.0357
2714.00,0.0357
2713.50,0.0357
2713.00,0.0357
2712.50,0.0357
2712.00,0.0357
2711.50,0.0357
2711.00,0.0357
2710.50,0.0357
2710.00,0.0357
2709.50,0.0357
2709.00,0.0357
2708.50,0.0357
2708.00,0.0357
2707.50,0.0357
2707.00,0.0357
2706.50,0.0357
2706.00,0.0357
2705.50,0.0357
2705.00,0.0357
2704.50,0.0357
2704.00,0.0357
2703.50,0.0357
2703.00,0.0357
2702.50,0.0357
2702.00,0.0357
2701.50,0.0357
2701.00,0.0357
2700.50,0.0357
2700.00,0.0356
2699.50,0.0356
2699.00,0.0356
2698.50,0.0356
2698.00,0.0356
2697.50,0.0356
2697.00,0.0356
2696.50,0.0356
2696.00,0.0356
2695.50,0.0356
2695.00,0.0356
2694.50,0.0356
2694.00,0.0356
2693.50,0.0356
2693.00,0.0356
2692.50,0.0356
2692.00,0.0355
2691.50,0.0355
2691.00,0.0355
2690.50,0.0355
2690.00,0.0355
2689.50,0.0355
2689.00,0.0355
2688.50,0.0355
2688.00,0.0355
2687.50,0.0355
2687.00,0.0355
2686.50,0.0356
2686.00,0.0356
2685.50,0.0356
2685.00,0.0356
2684.50,0.0356
2684.00,0.0356
2683.50,0.0356
2683.00,0.0356
2682.50,0.0356
2682.00,0.0356
2681.50,0.0356
2681.00,0.0356
2680.50,0.0357
2680.00,0.0357
2679.50,0.0357
2679.00,0.0358
2678.50,0.0358
2678.00,0.0358
2677.50,0.0358
2677.00,0.0359
2676.50,0.0359
2676.00,0.0360
2675.50,0.0360
2675.00,0.0361
2674.50,0.0361
2674.00,0.0361
2673.50,0.0361
2673.00,0.0362
2672.50,0.0362
2672.00,0.0363
2671.50,0.0363
2671.00,0.0364
2670.50,0.0364
2670.00,0.0365
2669.50,0.0365
2669.00,0.0365
2668.50,0.0365
2668.00,0.0366
2667.50,0.0366
2667.00,0.0367
2666.50,0.0367
2666.00,0.0367
2665.50,0.0367
2665.00,0.0367
2664.50,0.0368
2664.00,0.0368
2663.50,0.0368
2663.00,0.0368
2662.50,0.0368
2662.00,0.0368
2661.50,0.0368
2661.00,0.0368
2660.50,0.0367
2660.00,0.0367
2659.50,0.0367
2659.00,0.0367
2658.50,0.0366
2658.00,0.0366
2657.50,0.0366
2657.00,0.0366
2656.50,0.0365
2656.00,0.0365
2655.50,0.0364
2655.00,0.0364
2654.50,0.0364
2654.00,0.0363
2653.50,0.0363
2653.00,0.0362
2652.50,0.0362
2652.00,0.0361
2651.50,0.0361
2651.00,0.0360
2650.50,0.0360
2650.00,0.0359
2649.50,0.0359
2649.00,0.0358
2648.50,0.0358
2648.00,0.0357
2647.50,0.0357
2647.00,0.0356
2646.50,0.0356
2646.00,0.0355
2645.50,0.0355
2645.00,0.0354
2644.50,0.0354
2644.00,0.0354
2643.50,0.0353
2643.00,0.0353
2642.50,0.0352
2642.00,0.0352
2641.50,0.0352
2641.00,0.0351
2640.50,0.0351
2640.00,0.0351
2639.50,0.0350
2639.00,0.0350
2638.50,0.0350
2638.00,0.0349
2637.50,0.0349
2637.00,0.0349
2636.50,0.0349
2636.00,0.0348
2635.50,0.0348
2635.00,0.0348
2634.50,0.0347
2634.00,0.0347
2633.50,0.0347
2633.00,0.0347
2632.50,0.0347
2632.00,0.0346
2631.50,0.0346
2631.00,0.0346
2630.50,0.0346
2630.00,0.0345
2629.50,0.0345
2629.00,0.0345
2628.50,0.0345
2628.00,0.0345
2627.50,0.0345
2627.00,0.0344
2626.50,0.0344
2626.00,0.0344
2625.50,0.0344
2625.00,0.0344
2624.50,0.0344
2624.00,0.0344
2623.50,0.0344
2623.00,0.0344
2622.50,0.0343
2622.00,0.0343
2621.50,0.0343
2621.00,0.0343
2620.50,0.0343
2620.00,0.0343
2619.50,0.0343
2619.00,0.0343
2618.50,0.0343
2618.00,0.0343
2617.50,0.0343
2617.00,0.0343
2616.50,0.0343
2616.00,0.0343
2615.50,0.0343
2615.00,0.0343
2614.50,0.0342
2614.00,0.0342
2613.50,0.0342
2613.00,0.0342
2612.50,0.0342
2612.00,0.0342
2611.50,0.0342
2611.00,0.0342
2610.50,0.0342
2610.00,0.0342
2609.50,0.0341
2609.00,0.0341
2608.50,0.0341
2608.00,0.0341
2607.50,0.0341
2607.00,0.0341
2606.50,0.0341
2606.00,0.0341
2605.50,0.0341
2605.00,0.0341
2604.50,0.0341
2604.00,0.0341
2603.50,0.0340
2603.00,0.0340
2602.50,0.0340
2602.00,0.0340
2601.50,0.0340
2601.00,0.0340
2600.50,0.0340
2600.00,0.0340
2599.50,0.0340
2599.00,0.0340
2598.50,0.0340
2598.00,0.0340
2597.50,0.0340
2597.00,0.0340
2596.50,0.0340
2596.00,0.0340
2595.50,0.0340
2595.00,0.0339
2594.50,0.0339
2594.00,0.0339
2593.50,0.0339
2593.00,0.0339
2592.50,0.0339
2592.00,0.0339
2591.50,0.0339
2591.00,0.0339
2590.50,0.0339
2590.00,0.0339
2589.50,0.0339
2589.00,0.0339
2588.50,0.0339
2588.00,0.0339
2587.50,0.0339
2587.00,0.0339
2586.50,0.0339
2586.00,0.0339
2585.50,0.0339
2585.00,0.0339
2584.50,0.0339
2584.00,0.0339
2583.50,0.0339
2583.00,0.0339
2582.50,0.0339
2582.00,0.0338
2581.50,0.0338
2581.00,0.0338
2580.50,0.0338
2580.00,0.0338
2579.50,0.0338
2579.00,0.0338
2578.50,0.0338
2578.00,0.0338
2577.50,0.0338
2577.00,0.0338
2576.50,0.0338
2576.00,0.0338
2575.50,0.0338
2575.00,0.0338
2574.50,0.0338
2574.00,0.0338
2573.50,0.0338
2573.00,0.0338
2572.50,0.0337
2572.00,0.0337
2571.50,0.0337
2571.00,0.0337
2570.50,0.0337
2570.00,0.0337
2569.50,0.0337
2569.00,0.0337
2568.50,0.0337
2568.00,0.0337
2567.50,0.0337
2567.00,0.0337
2566.50,0.0337
2566.00,0.0337
2565.50,0.0337
2565.00,0.0337
2564.50,0.0337
2564.00,0.0337
2563.50,0.0337
2563.00,0.0337
2562.50,0.0337
2562.00,0.0337
2561.50,0.0337
2561.00,0.0337
2560.50,0.0337
2560.00,0.0337
2559.50,0.0337
2559.00,0.0337
2558.50,0.0337
2558.00,0.0337
2557.50,0.0337
2557.00,0.0337
2556.50,0.0337
2556.00,0.0337
2555.50,0.0337
2555.00,0.0337
2554.50,0.0337
2554.00,0.0337
2553.50,0.0337
2553.00,0.0336
2552.50,0.0336
2552.00,0.0336
2551.50,0.0336
2551.00,0.0336
2550.50,0.0336
2550.00,0.0336
2549.50,0.0336
2549.00,0.0336
2548.50,0.0336
2548.00,0.0336
2547.50,0.0336
2547.00,0.0336
2546.50,0.0336
2546.00,0.0335
2545.50,0.0335
2545.00,0.0335
2544.50,0.0335
2544.00,0.0335
2543.50,0.0335
2543.00,0.0335
2542.50,0.0335
2542.00,0.0335
2541.50,0.0335
2541.00,0.0334
2540.50,0.0334
2540.00,0.0334
2539.50,0.0334
2539.00,0.0334
2538.50,0.0334
2538.00,0.0334
2537.50,0.0334
2537.00,0.0334
2536.50,0.0334
2536.00,0.0334
2535.50,0.0334
2535.00,0.0333
2534.50,0.0333
2534.00,0.0333
2533.50,0.0333
2533.00,0.0333
2532.50,0.0333
2532.00,0.0333
2531.50,0.0333
2531.00,0.0333
2530.50,0.0333
2530.00,0.0333
2529.50,0.0333
2529.00,0.0333
2528.50,0.0333
2528.00,0.0333
2527.50,0.0333
2527.00,0.0333
2526.50,0.0333
2526.00,0.0333
2525.50,0.0333
2525.00,0.0334
2524.50,0.0334
2524.00,0.0334
2523.50,0.0334
2523.00,0.0334
2522.50,0.0334
2522.00,0.0334
2521.50,0.0334
2521.00,0.0334
2520.50,0.0334
2520.00,0.0334
2519.50,0.0334
2519.00,0.0334
2518.50,0.0335
2518.00,0.0335
2517.50,0.0335
2517.00,0.0335
2516.50,0.0335
2516.00,0.0335
2515.50,0.0335
2515.00,0.0336
2514.50,0.0336
2514.00,0.0336
2513.50,0.0337
2513.00,0.0337
2512.50,0.0337
2512.00,0.0338
2511.50,0.0338
2511.00,0.0338
2510.50,0.0339
2510.00,0.0340
2509.50,0.0340
2509.00,0.0341
2508.50,0.0341
2508.00,0.0342
2507.50,0.0343
2507.00,0.0344
2506.50,0.0345
2506.00,0.0346
2505.50,0.0347
2505.00,0.0349
2504.50,0.0350
2504.00,0.0351
2503.50,0.0352
2503.00,0.0354
2502.50,0.0355
2502.00,0.0356
2501.50,0.0357
2501.00,0.0358
2500.50,0.0359
2500.00,0.0359
2499.50,0.0360
2499.00,0.0360
2498.50,0.0360
2498.00,0.0359
2497.50,0.0359
2497.00,0.0359
2496.50,0.0358
2496.00,0.0357
2495.50,0.0357
2495.00,0.0356
2494.50,0.0355
2494.00,0.0354
2493.50,0.0354
2493.00,0.0353
2492.50,0.0352
2492.00,0.0351
2491.50,0.0350
2491.00,0.0349
2490.50,0.0349
2490.00,0.0348
2489.50,0.0347
2489.00,0.0346
2488.50,0.0346
2488.00,0.0345
2487.50,0.0345
2487.00,0.0344
2486.50,0.0343
2486.00,0.0343
2485.50,0.0342
2485.00,0.0342
2484.50,0.0342
2484.00,0.0341
2483.50,0.0341
2483.00,0.0340
2482.50,0.0340
2482.00,0.0340
2481.50,0.0339
2481.00,0.0339
2480.50,0.0339
2480.00,0.0339
2479.50,0.0338
2479.00,0.0338
2478.50,0.0338
2478.00,0.0338
2477.50,0.0338
2477.00,0.0338
2476.50,0.0338
2476.00,0.0337
2475.50,0.0337
2475.00,0.0337
2474.50,0.0337
2474.00,0.0337
2473.50,0.0337
2473.00,0.0336
2472.50,0.0336
2472.00,0.0336
2471.50,0.0336
2471.00,0.0336
2470.50,0.0336
2470.00,0.0336
2469.50,0.0336
2469.00,0.0336
2468.50,0.0336
2468.00,0.0336
2467.50,0.0336
2467.00,0.0336
2466.50,0.0336
2466.00,0.0336
2465.50,0.0336
2465.00,0.0335
2464.50,0.0335
2464.00,0.0335
2463.50,0.0335
2463.00,0.0335
2462.50,0.0335
2462.00,0.0335
2461.50,0.0335
2461.00,0.0335
2460.50,0.0335
2460.00,0.0334
2459.50,0.0334
2459.00,0.0334
2458.50,0.0334
2458.00,0.0334
2457.50,0.0334
2457.00,0.0334
2456.50,0.0334
2456.00,0.0334
2455.50,0.0334
2455.00,0.0334
2454.50,0.0334
2454.00,0.0334
2453.50,0.0334
2453.00,0.0334
2452.50,0.0334
2452.00,0.0334
2451.50,0.0334
2451.00,0.0333
2450.50,0.0333
2450.00,0.0333
2449.50,0.0333
2449.00,0.0333
2448.50,0.0333
2448.00,0.0333
2447.50,0.0333
2447.00,0.0333
2446.50,0.0333
2446.00,0.0333
2445.50,0.0333
2445.00,0.0333
2444.50,0.0333
2444.00,0.0333
2443.50,0.0333
2443.00,0.0333
2442.50,0.0333
2442.00,0.0333
2441.50,0.0333
2441.00,0.0333
2440.50,0.0333
2440.00,0.0333
2439.50,0.0333
2439.00,0.0333
2438.50,0.0333
2438.00,0.0333
2437.50,0.0333
2437.00,0.0333
2436.50,0.0333
2436.00,0.0333
2435.50,0.0333
2435.00,0.0333
2434.50,0.0332
2434.00,0.0332
2433.50,0.0332
2433.00,0.0332
2432.50,0.0332
2432.00,0.0332
2431.50,0.0332
2431.00,0.0332
2430.50,0.0332
2430.00,0.0332
2429.50,0.0332
2429.00,0.0332
2428.50,0.0332
2428.00,0.0331
2427.50,0.0331
2427.00,0.0331
2426.50,0.0331
2426.00,0.0331
2425.50,0.0331
2425.00,0.0331
2424.50,0.0331
2424.00,0.0331
2423.50,0.0331
2423.00,0.0331
2422.50,0.0331
2422.00,0.0331
2421.50,0.0331
2421.00,0.0331
2420.50,0.0331
2420.00,0.0331
2419.50,0.0331
2419.00,0.0331
2418.50,0.0331
2418.00,0.0331
2417.50,0.0331
2417.00,0.0331
2416.50,0.0331
2416.00,0.0331
2415.50,0.0331
2415.00,0.0331
2414.50,0.0331
2414.00,0.0331
2413.50,0.0331
2413.00,0.0331
2412.50,0.0331
2412.00,0.0331
2411.50,0.0331
2411.00,0.0331
2410.50,0.0331
2410.00,0.0331
2409.50,0.0331
2409.00,0.0331
2408.50,0.0331
2408.00,0.0331
2407.50,0.0331
2407.00,0.0331
2406.50,0.0331
2406.00,0.0331
2405.50,0.0331
2405.00,0.0331
2404.50,0.0331
2404.00,0.0331
2403.50,0.0331
2403.00,0.0331
2402.50,0.0330
2402.00,0.0330
2401.50,0.0330
2401.00,0.0330
2400.50,0.0330
2400.00,0.0330
2399.50,0.0330
2399.00,0.0330
2398.50,0.0330
2398.00,0.0330
2397.50,0.0330
2397.00,0.0330
2396.50,0.0330
2396.00,0.0330
2395.50,0.0330
2395.00,0.0330
2394.50,0.0330
2394.00,0.0330
2393.50,0.0330
2393.00,0.0330
2392.50,0.0330
2392.00,0.0330
2391.50,0.0330
2391.00,0.0330
2390.50,0.0330
2390.00,0.0330
2389.50,0.0330
2389.00,0.0330
2388.50,0.0330
2388.00,0.0330
2387.50,0.0329
2387.00,0.0329
2386.50,0.0329
2386.00,0.0329
2385.50,0.0329
2385.00,0.0329
2384.50,0.0329
2384.00,0.0328
2383.50,0.0328
2383.00,0.0328
2382.50,0.0327
2382.00,0.0327
2381.50,0.0328
2381.00,0.0328
2380.50,0.0328
2380.00,0.0329
2379.50,0.0330
2379.00,0.0330
2378.50,0.0331
2378.00,0.0331
2377.50,0.0332
2377.00,0.0333
2376.50,0.0333
2376.00,0.0333
2375.50,0.0333
2375.00,0.0333
2374.50,0.0333
2374.00,0.0333
2373.50,0.0333
2373.00,0.0332
2372.50,0.0332
2372.00,0.0331
2371.50,0.0331
2371.00,0.0331
2370.50,0.0331
2370.00,0.0331
2369.50,0.0330
2369.00,0.0331
2368.50,0.0331
2368.00,0.0331
2367.50,0.0331
2367.00,0.0331
2366.50,0.0331
2366.00,0.0331
2365.50,0.0331
2365.00,0.0331
2364.50,0.0331
2364.00,0.0331
2363.50,0.0331
2363.00,0.0332
2362.50,0.0332
2362.00,0.0332
2361.50,0.0332
2361.00,0.0331
2360.50,0.0331
2360.00,0.0331
2359.50,0.0332
2359.00,0.0332
2358.50,0.0332
2358.00,0.0331
2357.50,0.0331
2357.00,0.0331
2356.50,0.0331
2356.00,0.0332
2355.50,0.0332
2355.00,0.0333
2354.50,0.0333
2354.00,0.0333
2353.50,0.0332
2353.00,0.0333
2352.50,0.0333
2352.00,0.0333
2351.50,0.0333
2351.00,0.0332
2350.50,0.0331
2350.00,0.0331
2349.50,0.0331
2349.00,0.0331
2348.50,0.0331
2348.00,0.0332
2347.50,0.0332
2347.00,0.0332
2346.50,0.0332
2346.00,0.0332
2345.50,0.0331
2345.00,0.0331
2344.50,0.0330
2344.00,0.0330
2343.50,0.0329
2343.00,0.0329
2342.50,0.0330
2342.00,0.0330
2341.50,0.0330
2341.00,0.0331
2340.50,0.0332
2340.00,0.0332
2339.50,0.0332
2339.00,0.0333
2338.50,0.0333
2338.00,0.0333
2337.50,0.0333
2337.00,0.0333
2336.50,0.0332
2336.00,0.0333
2335.50,0.0333
2335.00,0.0333
2334.50,0.0333
2334.00,0.0332
2333.50,0.0332
2333.00,0.0332
2332.50,0.0332
2332.00,0.0332
2331.50,0.0331
2331.00,0.0331
2330.50,0.0332
2330.00,0.0332
2329.50,0.0331
2329.00,0.0331
2328.50,0.0331
2328.00,0.0331
2327.50,0.0330
2327.00,0.0330
2326.50,0.0331
2326.00,0.0331
2325.50,0.0331
2325.00,0.0330
2324.50,0.0330
2324.00,0.0330
2323.50,0.0330
2323.00,0.0330
2322.50,0.0330
2322.00,0.0331
2321.50,0.0330
2321.00,0.0330
2320.50,0.0330
2320.00,0.0331
2319.50,0.0331
2319.00,0.0331
2318.50,0.0331
2318.00,0.0331
2317.50,0.0331
2317.00,0.0330
2316.50,0.0331
2316.00,0.0331
2315.50,0.0331
2315.00,0.0330
2314.50,0.0330
2314.00,0.0331
2313.50,0.0331
2313.00,0.0330
2312.50,0.0330
2312.00,0.0330
2311.50,0.0330
2311.00,0.0329
2310.50,0.0329
2310.00,0.0330
2309.50,0.0330
2309.00,0.0329
2308.50,0.0329
2308.00,0.0329
2307.50,0.0330
2307.00,0.0329
2306.50,0.0329
2306.00,0.0330
2305.50,0.0330
2305.00,0.0330
2304.50,0.0330
2304.00,0.0330
2303.50,0.0330
2303.00,0.0330
2302.50,0.0329
2302.00,0.0329
2301.50,0.0330
2301.00,0.0330
2300.50,0.0330
2300.00,0.0330
2299.50,0.0330
2299.00,0.0330
2298.50,0.0330
2298.00,0.0330
2297.50,0.0330
2297.00,0.0331
2296.50,0.0331
2296.00,0.0331
2295.50,0.0331
2295.00,0.0331
2294.50,0.0331
2294.00,0.0331
2293.50,0.0331
2293.00,0.0332
2292.50,0.0332
2292.00,0.0332
2291.50,0.0332
2291.00,0.0332
2290.50,0.0332
2290.00,0.0332
2289.50,0.0332
2289.00,0.0332
2288.50,0.0332
2288.00,0.0332
2287.50,0.0332
2287.00,0.0333
2286.50,0.0333
2286.00,0.0333
2285.50,0.0333
2285.00,0.0333
2284.50,0.0333
2284.00,0.0333
2283.50,0.0333
2283.00,0.0333
2282.50,0.0333
2282.00,0.0333
2281.50,0.0333
2281.00,0.0333
2280.50,0.0333
2280.00,0.0334
2279.50,0.0334
2279.00,0.0334
2278.50,0.0334
2278.00,0.0334
2277.50,0.0334
2277.00,0.0334
2276.50,0.0334
2276.00,0.0334
2275.50,0.0334
2275.00,0.0334
2274.50,0.0335
2274.00,0.0334
2273.50,0.0335
2273.00,0.0335
2272.50,0.0335
2272.00,0.0335
2271.50,0.0335
2271.00,0.0335
2270.50,0.0335
2270.00,0.0335
2269.50,0.0335
2269.00,0.0335
2268.50,0.0335
2268.00,0.0335
2267.50,0.0335
2267.00,0.0335
2266.50,0.0335
2266.00,0.0335
2265.50,0.0335
2265.00,0.0335
2264.50,0.0335
2264.00,0.0335
2263.50,0.0335
2263.00,0.0335
2262.50,0.0335
2262.00,0.0335
2261.50,0.0335
2261.00,0.0335
2260.50,0.0335
2260.00,0.0335
2259.50,0.0335
2259.00,0.0335
2258.50,0.0335
2258.00,0.0335
2257.50,0.0335
2257.00,0.0335
2256.50,0.0335
2256.00,0.0335
2255.50,0.0335
2255.00,0.0335
2254.50,0.0335
2254.00,0.0335
2253.50,0.0335
2253.00,0.0335
2252.50,0.0335
2252.00,0.0335
2251.50,0.0335
2251.00,0.0335
2250.50,0.0335
2250.00,0.0335
2249.50,0.0335
2249.00,0.0336
2248.50,0.0336
2248.00,0.0336
2247.50,0.0336
2247.00,0.0336
2246.50,0.0336
2246.00,0.0336
2245.50,0.0336
2245.00,0.0336
2244.50,0.0337
2244.00,0.0337
2243.50,0.0337
2243.00,0.0337
2242.50,0.0337
2242.00,0.0337
2241.50,0.0337
2241.00,0.0337
2240.50,0.0338
2240.00,0.0338
2239.50,0.0338
2239.00,0.0338
2238.50,0.0338
2238.00,0.0338
2237.50,0.0338
2237.00,0.0339
2236.50,0.0339
2236.00,0.0339
2235.50,0.0339
2235.00,0.0339
2234.50,0.0339
2234.00,0.0340
2233.50,0.0340
2233.00,0.0340
2232.50,0.0340
2232.00,0.0340
2231.50,0.0340
2231.00,0.0341
2230.50,0.0341
2230.00,0.0341
2229.50,0.0341
2229.00,0.0342
2228.50,0.0342
2228.00,0.0342
2227.50,0.0342
2227.00,0.0343
2226.50,0.0343
2226.00,0.0343
2225.50,0.0343
2225.00,0.0344
2224.50,0.0344
2224.00,0.0344
2223.50,0.0344
2223.00,0.0345
2222.50,0.0345
2222.00,0.0346
2221.50,0.0346
2221.00,0.0346
2220.50,0.0347
2220.00,0.0347
2219.50,0.0348
2219.00,0.0348
2218.50,0.0348
2218.00,0.0349
2217.50,0.0349
2217.00,0.0350
2216.50,0.0350
2216.00,0.0351
2215.50,0.0351
2215.00,0.0352
2214.50,0.0352
2214.00,0.0353
2213.50,0.0353
2213.00,0.0354
2212.50,0.0354
2212.00,0.0355
2211.50,0.0356
2211.00,0.0356
2210.50,0.0357
2210.00,0.0357
2209.50,0.0358
2209.00,0.0359
2208.50,0.0360
2208.00,0.0360
2207.50,0.0361
2207.00,0.0362
2206.50,0.0363
2206.00,0.0364
2205.50,0.0365
2205.00,0.0366
2204.50,0.0366
2204.00,0.0367
2203.50,0.0368
2203.00,0.0369
2202.50,0.0370
2202.00,0.0372
2201.50,0.0373
2201.00,0.0374
2200.50,0.0375
2200.00,0.0376
2199.50,0.0377
2199.00,0.0379
2198.50,0.0380
2198.00,0.0382
2197.50,0.0383
2197.00,0.0385
2196.50,0.0386
2196.00,0.0388
2195.50,0.0390
2195.00,0.0391
2194.50,0.0393
2194.00,0.0395
2193.50,0.0397
2193.00,0.0399
2192.50,0.0401
2192.00,0.0404
2191.50,0.0406
2191.00,0.0408
2190.50,0.0411
2190.00,0.0413
2189.50,0.0416
2189.00,0.0419
2188.50,0.0421
2188.00,0.0424
2187.50,0.0427
2187.00,0.0430
2186.50,0.0434
2186.00,0.0437
2185.50,0.0440
2185.00,0.0443
2184.50,0.0447
2184.00,0.0451
2183.50,0.0454
2183.00,0.0458
2182.50,0.0462
2182.00,0.0466
2181.50,0.0470
2181.00,0.0474
2180.50,0.0478
2180.00,0.0482
2179.50,0.0487
2179.00,0.0491
2178.50,0.0496
2178.00,0.0500
2177.50,0.0504
2177.00,0.0509
2176.50,0.0513
2176.00,0.0518
2175.50,0.0522
2175.00,0.0526
2174.50,0.0531
2174.00,0.0535
2173.50,0.0539
2173.00,0.0544
2172.50,0.0548
2172.00,0.0551
2171.50,0.0555
2171.00,0.0559
2170.50,0.0562
2170.00,0.0566
2169.50,0.0569
2169.00,0.0572
2168.50,0.0575
2168.00,0.0577
2167.50,0.0580
2167.00,0.0582
2166.50,0.0584
2166.00,0.0586
2165.50,0.0588
2165.00,0.0589
2164.50,0.0590
2164.00,0.0591
2163.50,0.0592
2163.00,0.0592
2162.50,0.0592
2162.00,0.0592
2161.50,0.0591
2161.00,0.0591
2160.50,0.0590
2160.00,0.0588
2159.50,0.0587
2159.00,0.0585
2158.50,0.0584
2158.00,0.0581
2157.50,0.0579
2157.00,0.0577
2156.50,0.0574
2156.00,0.0571
2155.50,0.0568
2155.00,0.0565
2154.50,0.0561
2154.00,0.0557
2153.50,0.0554
2153.00,0.0550
2152.50,0.0546
2152.00,0.0542
2151.50,0.0538
2151.00,0.0534
2150.50,0.0530
2150.00,0.0525
2149.50,0.0521
2149.00,0.0516
2148.50,0.0512
2148.00,0.0508
2147.50,0.0503
2147.00,0.0499
2146.50,0.0494
2146.00,0.0490
2145.50,0.0486
2145.00,0.0482
2144.50,0.0477
2144.00,0.0473
2143.50,0.0469
2143.00,0.0465
2142.50,0.0461
2142.00,0.0457
2141.50,0.0454
2141.00,0.0450
2140.50,0.0447
2140.00,0.0443
2139.50,0.0440
2139.00,0.0437
2138.50,0.0433
2138.00,0.0430
2137.50,0.0427
2137.00,0.0424
2136.50,0.0422
2136.00,0.0419
2135.50,0.0416
2135.00,0.0414
2134.50,0.0411
2134.00,0.0409
2133.50,0.0406
2133.00,0.0404
2132.50,0.0402
2132.00,0.0400
2131.50,0.0398
2131.00,0.0396
2130.50,0.0394
2130.00,0.0393
2129.50,0.0391
2129.00,0.0390
2128.50,0.0388
2128.00,0.0387
2127.50,0.0385
2127.00,0.0384
2126.50,0.0383
2126.00,0.0382
2125.50,0.0381
2125.00,0.0380
2124.50,0.0379
2124.00,0.0378
2123.50,0.0377
2123.00,0.0376
2122.50,0.0375
2122.00,0.0374
2121.50,0.0373
2121.00,0.0372
2120.50,0.0372
2120.00,0.0371
2119.50,0.0370
2119.00,0.0369
2118.50,0.0369
2118.00,0.0368
2117.50,0.0367
2117.00,0.0367
2116.50,0.0366
2116.00,0.0366
2115.50,0.0365
2115.00,0.0365
2114.50,0.0364
2114.00,0.0364
2113.50,0.0363
2113.00,0.0363
2112.50,0.0363
2112.00,0.0362
2111.50,0.0362
2111.00,0.0361
2110.50,0.0361
2110.00,0.0361
2109.50,0.0360
2109.00,0.0360
2108.50,0.0360
2108.00,0.0360
2107.50,0.0359
2107.00,0.0359
2106.50,0.0359
2106.00,0.0359
2105.50,0.0359
2105.00,0.0358
2104.50,0.0358
2104.00,0.0358
2103.50,0.0358
2103.00,0.0358
2102.50,0.0357
2102.00,0.0357
2101.50,0.0357
2101.00,0.0357
2100.50,0.0357
2100.00,0.0356
2099.50,0.0356
2099.00,0.0356
2098.50,0.0356
2098.00,0.0356
2097.50,0.0355
2097.00,0.0355
2096.50,0.0355
2096.00,0.0355
2095.50,0.0355
2095.00,0.0355
2094.50,0.0355
2094.00,0.0354
2093.50,0.0354
2093.00,0.0354
2092.50,0.0354
2092.00,0.0354
2091.50,0.0354
2091.00,0.0354
2090.50,0.0354
2090.00,0.0354
2089.50,0.0354
2089.00,0.0354
2088.50,0.0354
2088.00,0.0354
2087.50,0.0354
2087.00,0.0354
2086.50,0.0354
2086.00,0.0354
2085.50,0.0354
2085.00,0.0354
2084.50,0.0354
2084.00,0.0354
2083.50,0.0353
2083.00,0.0353
2082.50,0.0353
2082.00,0.0354
2081.50,0.0354
2081.00,0.0354
2080.50,0.0354
2080.00,0.0354
2079.50,0.0354
2079.00,0.0354
2078.50,0.0354
2078.00,0.0354
2077.50,0.0354
2077.00,0.0354
2076.50,0.0354
2076.00,0.0354
2075.50,0.0355
2075.00,0.0355
2074.50,0.0355
2074.00,0.0355
2073.50,0.0355
2073.00,0.0355
2072.50,0.0355
2072.00,0.0356
2071.50,0.0356
2071.00,0.0356
2070.50,0.0356
2070.00,0.0356
2069.50,0.0357
2069.00,0.0357
2068.50,0.0357
2068.00,0.0357
2067.50,0.0357
2067.00,0.0358
2066.50,0.0358
2066.00,0.0358
2065.50,0.0358
2065.00,0.0359
2064.50,0.0359
2064.00,0.0359
2063.50,0.0359
2063.00,0.0360
2062.50,0.0360
2062.00,0.0360
2061.50,0.0360
2061.00,0.0361
2060.50,0.0361
2060.00,0.0361
2059.50,0.0362
2059.00,0.0362
2058.50,0.0362
2058.00,0.0362
2057.50,0.0363
2057.00,0.0363
2056.50,0.0363
2056.00,0.0363
2055.50,0.0363
2055.00,0.0364
2054.50,0.0364
2054.00,0.0364
2053.50,0.0364
2053.00,0.0364
2052.50,0.0364
2052.00,0.0364
2051.50,0.0364
2051.00,0.0364
2050.50,0.0364
2050.00,0.0364
2049.50,0.0364
2049.00,0.0363
2048.50,0.0363
2048.00,0.0363
2047.50,0.0362
2047.00,0.0362
2046.50,0.0361
2046.00,0.0360
2045.50,0.0360
2045.00,0.0359
2044.50,0.0358
2044.00,0.0357
2043.50,0.0356
2043.00,0.0355
2042.50,0.0355
2042.00,0.0354
2041.50,0.0353
2041.00,0.0352
2040.50,0.0351
2040.00,0.0350
2039.50,0.0350
2039.00,0.0349
2038.50,0.0349
2038.00,0.0348
2037.50,0.0347
2037.00,0.0347
2036.50,0.0346
2036.00,0.0346
2035.50,0.0345
2035.00,0.0345
2034.50,0.0344
2034.00,0.0344
2033.50,0.0344
2033.00,0.0344
2032.50,0.0343
2032.00,0.0343
2031.50,0.0343
2031.00,0.0343
2030.50,0.0343
2030.00,0.0343
2029.50,0.0343
2029.00,0.0343
2028.50,0.0343
2028.00,0.0343
2027.50,0.0343
2027.00,0.0343
2026.50,0.0343
2026.00,0.0343
2025.50,0.0343
2025.00,0.0343
2024.50,0.0344
2024.00,0.0344
2023.50,0.0344
2023.00,0.0344
2022.50,0.0344
2022.00,0.0345
2021.50,0.0345
2021.00,0.0345
2020.50,0.0346
2020.00,0.0346
2019.50,0.0346
2019.00,0.0347
2018.50,0.0347
2018.00,0.0347
2017.50,0.0348
2017.00,0.0348
2016.50,0.0348
2016.00,0.0349
2015.50,0.0349
2015.00,0.0350
2014.50,0.0350
2014.00,0.0351
2013.50,0.0351
2013.00,0.0352
2012.50,0.0352
2012.00,0.0353
2011.50,0.0353
2011.00,0.0354
2010.50,0.0354
2010.00,0.0355
2009.50,0.0355
2009.00,0.0355
2008.50,0.0356
2008.00,0.0356
2007.50,0.0357
2007.00,0.0357
2006.50,0.0357
2006.00,0.0357
2005.50,0.0358
2005.00,0.0358
2004.50,0.0358
2004.00,0.0358
2003.50,0.0359
2003.00,0.0359
2002.50,0.0359
2002.00,0.0359
2001.50,0.0360
2001.00,0.0360
2000.50,0.0360
2000.00,0.0360
1999.50,0.0361
1999.00,0.0361
1998.50,0.0361
1998.00,0.0361
1997.50,0.0361
1997.00,0.0361
1996.50,0.0361
1996.00,0.0361
1995.50,0.0361
1995.00,0.0361
1994.50,0.0361
1994.00,0.0360
1993.50,0.0360
1993.00,0.0360
1992.50,0.0360
1992.00,0.0360
1991.50,0.0360
1991.00,0.0360
1990.50,0.0360
1990.00,0.0360
1989.50,0.0361
1989.00,0.0361
1988.50,0.0361
1988.00,0.0361
1987.50,0.0362
1987.00,0.0362
1986.50,0.0362
1986.00,0.0362
1985.50,0.0363
1985.00,0.0363
1984.50,0.0364
1984.00,0.0364
1983.50,0.0365
1983.00,0.0365
1982.50,0.0366
1982.00,0.0366
1981.50,0.0367
1981.00,0.0368
1980.50,0.0368
1980.00,0.0369
1979.50,0.0370
1979.00,0.0371
1978.50,0.0371
1978.00,0.0372
1977.50,0.0373
1977.00,0.0374
1976.50,0.0375
1976.00,0.0375
1975.50,0.0376
1975.00,0.0377
1974.50,0.0379
1974.00,0.0380
1973.50,0.0381
1973.00,0.0382
1972.50,0.0383
1972.00,0.0384
1971.50,0.0385
1971.00,0.0386
1970.50,0.0387
1970.00,0.0388
1969.50,0.0390
1969.00,0.0391
1968.50,0.0392
1968.00,0.0393
1967.50,0.0394
1967.00,0.0395
1966.50,0.0397
1966.00,0.0398
1965.50,0.0399
1965.00,0.0400
1964.50,0.0401
1964.00,0.0402
1963.50,0.0402
1963.00,0.0403
1962.50,0.0404
1962.00,0.0405
1961.50,0.0406
1961.00,0.0407
1960.50,0.0408
1960.00,0.0408
1959.50,0.0409
1959.00,0.0410
1958.50,0.0411
1958.00,0.0412
1957.50,0.0413
1957.00,0.0414
1956.50,0.0415
1956.00,0.0416
1955.50,0.0417
1955.00,0.0418
1954.50,0.0419
1954.00,0.0420
1953.50,0.0421
1953.00,0.0422
1952.50,0.0423
1952.00,0.0424
1951.50,0.0426
1951.00,0.0427
1950.50,0.0428
1950.00,0.0429
1949.50,0.0431
1949.00,0.0432
1948.50,0.0433
1948.00,0.0434
1947.50,0.0435
1947.00,0.0436
1946.50,0.0437
1946.00,0.0437
1945.50,0.0438
1945.00,0.0438
1944.50,0.0438
1944.00,0.0438
1943.50,0.0438
1943.00,0.0438
1942.50,0.0437
1942.00,0.0437
1941.50,0.0436
1941.00,0.0435
1940.50,0.0434
1940.00,0.0432
1939.50,0.0431
1939.00,0.0429
1938.50,0.0428
1938.00,0.0426
1937.50,0.0424
1937.00,0.0422
1936.50,0.0420
1936.00,0.0418
1935.50,0.0416
1935.00,0.0414
1934.50,0.0412
1934.00,0.0411
1933.50,0.0409
1933.00,0.0408
1932.50,0.0407
1932.00,0.0405
1931.50,0.0404
1931.00,0.0403
1930.50,0.0402
1930.00,0.0401
1929.50,0.0400
1929.00,0.0399
1928.50,0.0398
1928.00,0.0398
1927.50,0.0397
1927.00,0.0396
1926.50,0.0396
1926.00,0.0395
1925.50,0.0395
1925.00,0.0394
1924.50,0.0394
1924.00,0.0393
1923.50,0.0393
1923.00,0.0392
1922.50,0.0392
1922.00,0.0392
1921.50,0.0391
1921.00,0.0391
1920.50,0.0391
1920.00,0.0390
1919.50,0.0390
1919.00,0.0389
1918.50,0.0389
1918.00,0.0388
1917.50,0.0388
1917.00,0.0387
1916.50,0.0386
1916.00,0.0386
1915.50,0.0385
1915.00,0.0385
1914.50,0.0384
1914.00,0.0383
1913.50,0.0383
1913.00,0.0382
1912.50,0.0381
1912.00,0.0380
1911.50,0.0379
1911.00,0.0378
1910.50,0.0377
1910.00,0.0377
1909.50,0.0376
1909.00,0.0375
1908.50,0.0375
1908.00,0.0374
1907.50,0.0374
1907.00,0.0373
1906.50,0.0373
1906.00,0.0372
1905.50,0.0372
1905.00,0.0372
1904.50,0.0371
1904.00,0.0371
1903.50,0.0370
1903.00,0.0370
1902.50,0.0370
1902.00,0.0369
1901.50,0.0369
1901.00,0.0369
1900.50,0.0368
1900.00,0.0368
1899.50,0.0368
1899.00,0.0368
1898.50,0.0368
1898.00,0.0368
1897.50,0.0368
1897.00,0.0368
1896.50,0.0367
1896.00,0.0367
1895.50,0.0367
1895.00,0.0367
1894.50,0.0367
1894.00,0.0367
1893.50,0.0367
1893.00,0.0367
1892.50,0.0367
1892.00,0.0367
1891.50,0.0367
1891.00,0.0367
1890.50,0.0367
1890.00,0.0368
1889.50,0.0368
1889.00,0.0367
1888.50,0.0367
1888.00,0.0367
1887.50,0.0367
1887.00,0.0367
1886.50,0.0367
1886.00,0.0367
1885.50,0.0367
1885.00,0.0367
1884.50,0.0367
1884.00,0.0367
1883.50,0.0367
1883.00,0.0367
1882.50,0.0367
1882.00,0.0368
1881.50,0.0368
1881.00,0.0368
1880.50,0.0368
1880.00,0.0368
1879.50,0.0368
1879.00,0.0368
1878.50,0.0368
1878.00,0.0368
1877.50,0.0368
1877.00,0.0368
1876.50,0.0368
1876.00,0.0368
1875.50,0.0368
1875.00,0.0368
1874.50,0.0368
1874.00,0.0368
1873.50,0.0368
1873.00,0.0368
1872.50,0.0368
1872.00,0.0368
1871.50,0.0368
1871.00,0.0368
1870.50,0.0368
1870.00,0.0368
1869.50,0.0368
1869.00,0.0368
1868.50,0.0368
1868.00,0.0368
1867.50,0.0368
1867.00,0.0369
1866.50,0.0369
1866.00,0.0368
1865.50,0.0368
1865.00,0.0368
1864.50,0.0368
1864.00,0.0368
1863.50,0.0368
1863.00,0.0368
1862.50,0.0368
1862.00,0.0368
1861.50,0.0368
1861.00,0.0368
1860.50,0.0368
1860.00,0.0368
1859.50,0.0368
1859.00,0.0368
1858.50,0.0368
1858.00,0.0368
1857.50,0.0368
1857.00,0.0368
1856.50,0.0369
1856.00,0.0369
1855.50,0.0369
1855.00,0.0369
1854.50,0.0368
1854.00,0.0368
1853.50,0.0369
1853.00,0.0369
1852.50,0.0369
1852.00,0.0368
1851.50,0.0369
1851.00,0.0369
1850.50,0.0369
1850.00,0.0368
1849.50,0.0368
1849.00,0.0368
1848.50,0.0368
1848.00,0.0368
1847.50,0.0368
1847.00,0.0368
1846.50,0.0367
1846.00,0.0367
1845.50,0.0367
1845.00,0.0367
1844.50,0.0366
1844.00,0.0366
1843.50,0.0367
1843.00,0.0367
1842.50,0.0367
1842.00,0.0367
1841.50,0.0367
1841.00,0.0367
1840.50,0.0367
1840.00,0.0367
1839.50,0.0367
1839.00,0.0367
1838.50,0.0367
1838.00,0.0367
1837.50,0.0367
1837.00,0.0367
1836.50,0.0367
1836.00,0.0367
1835.50,0.0367
1835.00,0.0367
1834.50,0.0367
1834.00,0.0367
1833.50,0.0367
1833.00,0.0367
1832.50,0.0367
1832.00,0.0367
1831.50,0.0367
1831.00,0.0367
1830.50,0.0367
1830.00,0.0368
1829.50,0.0368
1829.00,0.0368
1828.50,0.0368
1828.00,0.0368
1827.50,0.0368
1827.00,0.0368
1826.50,0.0369
1826.00,0.0369
1825.50,0.0369
1825.00,0.0370
1824.50,0.0370
1824.00,0.0370
1823.50,0.0370
1823.00,0.0370
1822.50,0.0370
1822.00,0.0371
1821.50,0.0371
1821.00,0.0371
1820.50,0.0371
1820.00,0.0372
1819.50,0.0372
1819.00,0.0372
1818.50,0.0372
1818.00,0.0373
1817.50,0.0374
1817.00,0.0374
1816.50,0.0374
1816.00,0.0375
1815.50,0.0375
1815.00,0.0375
1814.50,0.0376
1814.00,0.0376
1813.50,0.0376
1813.00,0.0377
1812.50,0.0377
1812.00,0.0377
1811.50,0.0378
1811.00,0.0378
1810.50,0.0378
1810.00,0.0379
1809.50,0.0379
1809.00,0.0380
1808.50,0.0380
1808.00,0.0381
1807.50,0.0381
1807.00,0.0382
1806.50,0.0382
1806.00,0.0382
1805.50,0.0383
1805.00,0.0383
1804.50,0.0384
1804.00,0.0384
1803.50,0.0385
1803.00,0.0385
1802.50,0.0386
1802.00,0.0386
1801.50,0.0387
1801.00,0.0387
1800.50,0.0388
1800.00,0.0388
1799.50,0.0389
1799.00,0.0389
1798.50,0.0389
1798.00,0.0390
1797.50,0.0390
1797.00,0.0391
1796.50,0.0391
1796.00,0.0391
1795.50,0.0392
1795.00,0.0392
1794.50,0.0393
1794.00,0.0393
1793.50,0.0394
1793.00,0.0394
1792.50,0.0394
1792.00,0.0395
1791.50,0.0395
1791.00,0.0395
1790.50,0.0396
1790.00,0.0396
1789.50,0.0397
1789.00,0.0397
1788.50,0.0397
1788.00,0.0397
1787.50,0.0398
1787.00,0.0398
1786.50,0.0398
1786.00,0.0399
1785.50,0.0399
1785.00,0.0399
1784.50,0.0399
1784.00,0.0400
1783.50,0.0400
1783.00,0.0400
1782.50,0.0400
1782.00,0.0401
1781.50,0.0401
1781.00,0.0401
1780.50,0.0401
1780.00,0.0401
1779.50,0.0401
1779.00,0.0401
1778.50,0.0402
1778.00,0.0402
1777.50,0.0401
1777.00,0.0402
1776.50,0.0402
1776.00,0.0402
1775.50,0.0402
1775.00,0.0402
1774.50,0.0402
1774.00,0.0401
1773.50,0.0401
1773.00,0.0401
1772.50,0.0401
1772.00,0.0401
1771.50,0.0401
1771.00,0.0402
1770.50,0.0401
1770.00,0.0401
1769.50,0.0401
1769.00,0.0401
1768.50,0.0401
1768.00,0.0400
1767.50,0.0400
1767.00,0.0401
1766.50,0.0401
1766.00,0.0400
1765.50,0.0400
1765.00,0.0400
1764.50,0.0400
1764.00,0.0400
1763.50,0.0400
1763.00,0.0400
1762.50,0.0399
1762.00,0.0399
1761.50,0.0399
1761.00,0.0399
1760.50,0.0399
1760.00,0.0399
1759.50,0.0399
1759.00,0.0399
1758.50,0.0399
1758.00,0.0399
1757.50,0.0399
1757.00,0.0399
1756.50,0.0399
1756.00,0.0399
1755.50,0.0399
1755.00,0.0399
1754.50,0.0399
1754.00,0.0398
1753.50,0.0398
1753.00,0.0398
1752.50,0.0398
1752.00,0.0398
1751.50,0.0398
1751.00,0.0398
1750.50,0.0398
1750.00,0.0398
1749.50,0.0398
1749.00,0.0398
1748.50,0.0398
1748.00,0.0398
1747.50,0.0398
1747.00,0.0398
1746.50,0.0399
1746.00,0.0399
1745.50,0.0399
1745.00,0.0399
1744.50,0.0399
1744.00,0.0399
1743.50,0.0400
1743.00,0.0400
1742.50,0.0400
1742.00,0.0400
1741.50,0.0400
1741.00,0.0400
1740.50,0.0400
1740.00,0.0400
1739.50,0.0400
1739.00,0.0400
1738.50,0.0400
1738.00,0.0401
1737.50,0.0401
1737.00,0.0401
1736.50,0.0401
1736.00,0.0401
1735.50,0.0402
1735.00,0.0402
1734.50,0.0401
1734.00,0.0401
1733.50,0.0402
1733.00,0.0403
1732.50,0.0403
1732.00,0.0403
1731.50,0.0404
1731.00,0.0404
1730.50,0.0404
1730.00,0.0404
1729.50,0.0404
1729.00,0.0404
1728.50,0.0405
1728.00,0.0405
1727.50,0.0405
1727.00,0.0405
1726.50,0.0405
1726.00,0.0405
1725.50,0.0406
1725.00,0.0406
1724.50,0.0406
1724.00,0.0406
1723.50,0.0406
1723.00,0.0406
1722.50,0.0406
1722.00,0.0406
1721.50,0.0406
1721.00,0.0406
1720.50,0.0407
1720.00,0.0407
1719.50,0.0407
1719.00,0.0407
1718.50,0.0406
1718.00,0.0406
1717.50,0.0407
1717.00,0.0407
1716.50,0.0407
1716.00,0.0407
1715.50,0.0407
1715.00,0.0407
1714.50,0.0407
1714.00,0.0407
1713.50,0.0407
1713.00,0.0407
1712.50,0.0407
1712.00,0.0407
1711.50,0.0407
1711.00,0.0407
1710.50,0.0407
1710.00,0.0407
1709.50,0.0407
1709.00,0.0407
1708.50,0.0407
1708.00,0.0407
1707.50,0.0407
1707.00,0.0407
1706.50,0.0407
1706.00,0.0407
1705.50,0.0407
1705.00,0.0407
1704.50,0.0408
1704.00,0.0408
1703.50,0.0407
1703.00,0.0407
1702.50,0.0407
1702.00,0.0408
1701.50,0.0408
1701.00,0.0408
1700.50,0.0407
1700.00,0.0406
1699.50,0.0407
1699.00,0.0408
1698.50,0.0408
1698.00,0.0407
1697.50,0.0407
1697.00,0.0408
1696.50,0.0408
1696.00,0.0408
1695.50,0.0408
1695.00,0.0408
1694.50,0.0409
1694.00,0.0409
1693.50,0.0409
1693.00,0.0409
1692.50,0.0409
1692.00,0.0409
1691.50,0.0409
1691.00,0.0410
1690.50,0.0410
1690.00,0.0410
1689.50,0.0410
1689.00,0.0410
1688.50,0.0411
1688.00,0.0410
1687.50,0.0410
1687.00,0.0410
1686.50,0.0411
1686.00,0.0411
1685.50,0.0411
1685.00,0.0411
1684.50,0.0411
1684.00,0.0413
1683.50,0.0414
1683.00,0.0413
1682.50,0.0413
1682.00,0.0413
1681.50,0.0413
1681.00,0.0414
1680.50,0.0414
1680.00,0.0414
1679.50,0.0414
1679.00,0.0415
1678.50,0.0415
1678.00,0.0415
1677.50,0.0415
1677.00,0.0416
1676.50,0.0416
1676.00,0.0417
1675.50,0.0417
1675.00,0.0417
1674.50,0.0417
1674.00,0.0418
1673.50,0.0419
1673.00,0.0419
1672.50,0.0419
1672.00,0.0420
1671.50,0.0420
1671.00,0.0421
1670.50,0.0421
1670.00,0.0421
1669.50,0.0421
1669.00,0.0422
1668.50,0.0423
1668.00,0.0424
1667.50,0.0424
1667.00,0.0424
1666.50,0.0424
1666.00,0.0425
1665.50,0.0426
1665.00,0.0426
1664.50,0.0426
1664.00,0.0426
1663.50,0.0427
1663.00,0.0427
1662.50,0.0428
1662.00,0.0428
1661.50,0.0429
1661.00,0.0430
1660.50,0.0430
1660.00,0.0431
1659.50,0.0431
1659.00,0.0431
1658.50,0.0432
1658.00,0.0432
1657.50,0.0433
1657.00,0.0433
1656.50,0.0433
1656.00,0.0433
1655.50,0.0434
1655.00,0.0435
1654.50,0.0435
1654.00,0.0435
1653.50,0.0436
1653.00,0.0437
1652.50,0.0438
1652.00,0.0438
1651.50,0.0439
1651.00,0.0439
1650.50,0.0439
1650.00,0.0439
1649.50,0.0440
1649.00,0.0440
1648.50,0.0440
1648.00,0.0440
1647.50,0.0441
1647.00,0.0441
1646.50,0.0441
1646.00,0.0441
1645.50,0.0442
1645.00,0.0443
1644.50,0.0443
1644.00,0.0443
1643.50,0.0443
1643.00,0.0444
1642.50,0.0444
1642.00,0.0445
1641.50,0.0445
1641.00,0.0445
1640.50,0.0446
1640.00,0.0446
1639.50,0.0446
1639.00,0.0446
1638.50,0.0447
1638.00,0.0447
1637.50,0.0447
1637.00,0.0448
1636.50,0.0448
1636.00,0.0448
1635.50,0.0449
1635.00,0.0449
1634.50,0.0450
1634.00,0.0450
1633.50,0.0451
1633.00,0.0451
1632.50,0.0452
1632.00,0.0452
1631.50,0.0453
1631.00,0.0453
1630.50,0.0453
1630.00,0.0454
1629.50,0.0454
1629.00,0.0455
1628.50,0.0455
1628.00,0.0455
1627.50,0.0456
1627.00,0.0457
1626.50,0.0457
1626.00,0.0458
1625.50,0.0458
1625.00,0.0458
1624.50,0.0459
1624.00,0.0460
1623.50,0.0460
1623.00,0.0461
1622.50,0.0461
1622.00,0.0462
1621.50,0.0463
1621.00,0.0463
1620.50,0.0464
1620.00,0.0464
1619.50,0.0465
1619.00,0.0466
1618.50,0.0466
1618.00,0.0466
1617.50,0.0467
1617.00,0.0467
1616.50,0.0468
1616.00,0.0469
1615.50,0.0470
1615.00,0.0470
1614.50,0.0471
1614.00,0.0471
1613.50,0.0472
1613.00,0.0473
1612.50,0.0473
1612.00,0.0473
1611.50,0.0474
1611.00,0.0474
1610.50,0.0475
1610.00,0.0475
1609.50,0.0476
1609.00,0.0476
1608.50,0.0477
1608.00,0.0477
1607.50,0.0477
1607.00,0.0478
1606.50,0.0478
1606.00,0.0479
1605.50,0.0480
1605.00,0.0480
1604.50,0.0481
1604.00,0.0482
1603.50,0.0483
1603.00,0.0484
1602.50,0.0485
1602.00,0.0487
1601.50,0.0488
1601.00,0.0491
1600.50,0.0494
1600.00,0.0497
1599.50,0.0501
1599.00,0.0505
1598.50,0.0510
1598.00,0.0514
1597.50,0.0517
1597.00,0.0518
1596.50,0.0518
1596.00,0.0516
1595.50,0.0512
1595.00,0.0507
1594.50,0.0502
1594.00,0.0497
1593.50,0.0493
1593.00,0.0490
1592.50,0.0487
1592.00,0.0485
1591.50,0.0483
1591.00,0.0481
1590.50,0.0480
1590.00,0.0479
1589.50,0.0477
1589.00,0.0476
1588.50,0.0475
1588.00,0.0475
1587.50,0.0474
1587.00,0.0473
1586.50,0.0472
1586.00,0.0471
1585.50,0.0471
1585.00,0.0470
1584.50,0.0469
1584.00,0.0468
1583.50,0.0468
1583.00,0.0467
1582.50,0.0467
1582.00,0.0466
1581.50,0.0465
1581.00,0.0465
1580.50,0.0464
1580.00,0.0464
1579.50,0.0463
1579.00,0.0462
1578.50,0.0462
1578.00,0.0461
1577.50,0.0461
1577.00,0.0461
1576.50,0.0460
1576.00,0.0459
1575.50,0.0459
1575.00,0.0458
1574.50,0.0457
1574.00,0.0457
1573.50,0.0456
1573.00,0.0456
1572.50,0.0455
1572.00,0.0455
1571.50,0.0454
1571.00,0.0454
1570.50,0.0454
1570.00,0.0453
1569.50,0.0452
1569.00,0.0452
1568.50,0.0451
1568.00,0.0451
1567.50,0.0451
1567.00,0.0450
1566.50,0.0450
1566.00,0.0450
1565.50,0.0449
1565.00,0.0449
1564.50,0.0449
1564.00,0.0448
1563.50,0.0448
1563.00,0.0448
1562.50,0.0448
1562.00,0.0448
1561.50,0.0448
1561.00,0.0448
1560.50,0.0448
1560.00,0.0448
1559.50,0.0447
1559.00,0.0446
1558.50,0.0447
1558.00,0.0447
1557.50,0.0447
1557.00,0.0447
1556.50,0.0447
1556.00,0.0446
1555.50,0.0446
1555.00,0.0446
1554.50,0.0446
1554.00,0.0446
1553.50,0.0446
1553.00,0.0446
1552.50,0.0446
1552.00,0.0446
1551.50,0.0446
1551.00,0.0446
1550.50,0.0446
1550.00,0.0446
1549.50,0.0446
1549.00,0.0446
1548.50,0.0445
1548.00,0.0445
1547.50,0.0445
1547.00,0.0446
1546.50,0.0446
1546.00,0.0446
1545.50,0.0446
1545.00,0.0446
1544.50,0.0446
1544.00,0.0446
1543.50,0.0446
1543.00,0.0447
1542.50,0.0447
1542.00,0.0447
1541.50,0.0447
1541.00,0.0447
1540.50,0.0447
1540.00,0.0448
1539.50,0.0448
1539.00,0.0448
1538.50,0.0448
1538.00,0.0448
1537.50,0.0448
1537.00,0.0448
1536.50,0.0448
1536.00,0.0448
1535.50,0.0448
1535.00,0.0448
1534.50,0.0449
1534.00,0.0449
1533.50,0.0449
1533.00,0.0449
1532.50,0.0449
1532.00,0.0449
1531.50,0.0449
1531.00,0.0449
1530.50,0.0449
1530.00,0.0449
1529.50,0.0449
1529.00,0.0449
1528.50,0.0449
1528.00,0.0449
1527.50,0.0449
1527.00,0.0449
1526.50,0.0449
1526.00,0.0450
1525.50,0.0449
1525.00,0.0449
1524.50,0.0449
1524.00,0.0449
1523.50,0.0449
1523.00,0.0449
1522.50,0.0449
1522.00,0.0450
1521.50,0.0450
1521.00,0.0450
1520.50,0.0450
1520.00,0.0450
1519.50,0.0449
1519.00,0.0449
1518.50,0.0449
1518.00,0.0449
1517.50,0.0450
1517.00,0.0450
1516.50,0.0449
1516.00,0.0449
1515.50,0.0449
1515.00,0.0449
1514.50,0.0449
1514.00,0.0449
1513.50,0.0449
1513.00,0.0449
1512.50,0.0449
1512.00,0.0449
1511.50,0.0449
1511.00,0.0449
1510.50,0.0449
1510.00,0.0449
1509.50,0.0449
1509.00,0.0449
1508.50,0.0449
1508.00,0.0449
1507.50,0.0449
1507.00,0.0450
1506.50,0.0450
1506.00,0.0450
1505.50,0.0450
1505.00,0.0450
1504.50,0.0450
1504.00,0.0450
1503.50,0.0450
1503.00,0.0451
1502.50,0.0451
1502.00,0.0450
1501.50,0.0451
1501.00,0.0451
1500.50,0.0451
1500.00,0.0451
1499.50,0.0452
1499.00,0.0452
1498.50,0.0453
1498.00,0.0453
1497.50,0.0453
1497.00,0.0454
1496.50,0.0455
1496.00,0.0455
1495.50,0.0455
1495.00,0.0456
1494.50,0.0456
1494.00,0.0457
1493.50,0.0458
1493.00,0.0459
1492.50,0.0459
1492.00,0.0460
1491.50,0.0461
1491.00,0.0462
1490.50,0.0464
1490.00,0.0466
1489.50,0.0468
1489.00,0.0469
1488.50,0.0471
1488.00,0.0472
1487.50,0.0474
1487.00,0.0475
1486.50,0.0476
1486.00,0.0476
1485.50,0.0477
1485.00,0.0478
1484.50,0.0479
1484.00,0.0480
1483.50,0.0480
1483.00,0.0481
1482.50,0.0482
1482.00,0.0482
1481.50,0.0483
1481.00,0.0484
1480.50,0.0484
1480.00,0.0484
1479.50,0.0485
1479.00,0.0485
1478.50,0.0485
1478.00,0.0485
1477.50,0.0486
1477.00,0.0486
1476.50,0.0487
1476.00,0.0487
1475.50,0.0487
1475.00,0.0488
1474.50,0.0488
1474.00,0.0489
1473.50,0.0490
1473.00,0.0491
1472.50,0.0493
1472.00,0.0494
1471.50,0.0496
1471.00,0.0498
1470.50,0.0500
1470.00,0.0502
1469.50,0.0504
1469.00,0.0507
1468.50,0.0509
1468.00,0.0512
1467.50,0.0515
1467.00,0.0518
1466.50,0.0521
1466.00,0.0523
1465.50,0.0527
1465.00,0.0531
1464.50,0.0536
1464.00,0.0540
1463.50,0.0544
1463.00,0.0548
1462.50,0.0552
1462.00,0.0557
1461.50,0.0561
1461.00,0.0566
1460.50,0.0571
1460.00,0.0576
1459.50,0.0581
1459.00,0.0586
1458.50,0.0591
1458.00,0.0596
1457.50,0.0601
1457.00,0.0608
1456.50,0.0614
1456.00,0.0620
1455.50,0.0624
1455.00,0.0629
1454.50,0.0634
1454.00,0.0639
1453.50,0.0645
1453.00,0.0651
1452.50,0.0658
1452.00,0.0665
1451.50,0.0673
1451.00,0.0680
1450.50,0.0687
1450.00,0.0693
1449.50,0.0700
1449.00,0.0707
1448.50,0.0713
1448.00,0.0720
1447.50,0.0725
1447.00,0.0730
1446.50,0.0733
1446.00,0.0734
1445.50,0.0735
1445.00,0.0736
1444.50,0.0735
1444.00,0.0732
1443.50,0.0730
1443.00,0.0726
1442.50,0.0721
1442.00,0.0716
1441.50,0.0711
1441.00,0.0705
1440.50,0.0699
1440.00,0.0694
1439.50,0.0688
1439.00,0.0683
1438.50,0.0678
1438.00,0.0674
1437.50,0.0670
1437.00,0.0665
1436.50,0.0659
1436.00,0.0655
1435.50,0.0654
1435.00,0.0653
1434.50,0.0652
1434.00,0.0651
1433.50,0.0651
1433.00,0.0652
1432.50,0.0652
1432.00,0.0653
1431.50,0.0655
1431.00,0.0658
1430.50,0.0662
1430.00,0.0666
1429.50,0.0672
1429.00,0.0678
1428.50,0.0683
1428.00,0.0690
1427.50,0.0698
1427.00,0.0707
1426.50,0.0716
1426.00,0.0727
1425.50,0.0738
1425.00,0.0751
1424.50,0.0766
1424.00,0.0783
1423.50,0.0802
1423.00,0.0821
1422.50,0.0839
1422.00,0.0858
1421.50,0.0878
1421.00,0.0897
1420.50,0.0916
1420.00,0.0940
1419.50,0.0972
1419.00,0.1006
1418.50,0.1031
1418.00,0.1051
1417.50,0.1070
1417.00,0.1091
1416.50,0.1111
1416.00,0.1129
1415.50,0.1145
1415.00,0.1159
1414.50,0.1171
1414.00,0.1181
1413.50,0.1190
1413.00,0.1196
1412.50,0.1199
1412.00,0.1202
1411.50,0.1203
1411.00,0.1202
1410.50,0.1200
1410.00,0.1196
1409.50,0.1191
1409.00,0.1184
1408.50,0.1177
1408.00,0.1169
1407.50,0.1159
1407.00,0.1150
1406.50,0.1140
1406.00,0.1130
1405.50,0.1120
1405.00,0.1109
1404.50,0.1098
1404.00,0.1089
1403.50,0.1081
1403.00,0.1074
1402.50,0.1067
1402.00,0.1060
1401.50,0.1053
1401.00,0.1046
1400.50,0.1038
1400.00,0.1029
1399.50,0.1016
1399.00,0.1001
1398.50,0.0985
1398.00,0.0969
1397.50,0.0954
1397.00,0.0937
1396.50,0.0920
1396.00,0.0903
1395.50,0.0884
1395.00,0.0863
1394.50,0.0841
1394.00,0.0821
1393.50,0.0804
1393.00,0.0790
1392.50,0.0777
1392.00,0.0764
1391.50,0.0751
1391.00,0.0739
1390.50,0.0728
1390.00,0.0718
1389.50,0.0709
1389.00,0.0701
1388.50,0.0694
1388.00,0.0687
1387.50,0.0680
1387.00,0.0673
1386.50,0.0667
1386.00,0.0663
1385.50,0.0659
1385.00,0.0655
1384.50,0.0651
1384.00,0.0647
1383.50,0.0644
1383.00,0.0640
1382.50,0.0636
1382.00,0.0633
1381.50,0.0630
1381.00,0.0627
1380.50,0.0624
1380.00,0.0621
1379.50,0.0619
1379.00,0.0617
1378.50,0.0615
1378.00,0.0613
1377.50,0.0611
1377.00,0.0610
1376.50,0.0609
1376.00,0.0609
1375.50,0.0608
1375.00,0.0607
1374.50,0.0607
1374.00,0.0607
1373.50,0.0607
1373.00,0.0606
1372.50,0.0606
1372.00,0.0605
1371.50,0.0604
1371.00,0.0603
1370.50,0.0602
1370.00,0.0600
1369.50,0.0598
1369.00,0.0596
1368.50,0.0594
1368.00,0.0593
1367.50,0.0592
1367.00,0.0591
1366.50,0.0590
1366.00,0.0589
1365.50,0.0588
1365.00,0.0588
1364.50,0.0587
1364.00,0.0587
1363.50,0.0587
1363.00,0.0586
1362.50,0.0586
1362.00,0.0585
1361.50,0.0585
1361.00,0.0584
1360.50,0.0584
1360.00,0.0584
1359.50,0.0584
1359.00,0.0583
1358.50,0.0583
1358.00,0.0583
1357.50,0.0583
1357.00,0.0583
1356.50,0.0583
1356.00,0.0583
1355.50,0.0583
1355.00,0.0583
1354.50,0.0583
1354.00,0.0584
1353.50,0.0584
1353.00,0.0584
1352.50,0.0584
1352.00,0.0584
1351.50,0.0585
1351.00,0.0585
1350.50,0.0586
1350.00,0.0586
1349.50,0.0587
1349.00,0.0587
1348.50,0.0588
1348.00,0.0589
1347.50,0.0589
1347.00,0.0590
1346.50,0.0591
1346.00,0.0591
1345.50,0.0592
1345.00,0.0592
1344.50,0.0593
1344.00,0.0593
1343.50,0.0593
1343.00,0.0594
1342.50,0.0594
1342.00,0.0594
1341.50,0.0594
1341.00,0.0595
1340.50,0.0595
1340.00,0.0595
1339.50,0.0595
1339.00,0.0595
1338.50,0.0596
1338.00,0.0597
1337.50,0.0598
1337.00,0.0598
1336.50,0.0599
1336.00,0.0600
1335.50,0.0601
1335.00,0.0602
1334.50,0.0603
1334.00,0.0605
1333.50,0.0606
1333.00,0.0608
1332.50,0.0609
1332.00,0.0610
1331.50,0.0612
1331.00,0.0613
1330.50,0.0615
1330.00,0.0617
1329.50,0.0619
1329.00,0.0621
1328.50,0.0623
1328.00,0.0625
1327.50,0.0627
1327.00,0.0629
1326.50,0.0631
1326.00,0.0633
1325.50,0.0636
1325.00,0.0638
1324.50,0.0640
1324.00,0.0643
1323.50,0.0645
1323.00,0.0648
1322.50,0.0651
1322.00,0.0654
1321.50,0.0657
1321.00,0.0660
1320.50,0.0663
1320.00,0.0666
1319.50,0.0669
1319.00,0.0672
1318.50,0.0675
1318.00,0.0679
1317.50,0.0682
1317.00,0.0685
1316.50,0.0689
1316.00,0.0692
1315.50,0.0696
1315.00,0.0700
1314.50,0.0704
1314.00,0.0707
1313.50,0.0711
1313.00,0.0715
1312.50,0.0719
1312.00,0.0723
1311.50,0.0727
1311.00,0.0731
1310.50,0.0735
1310.00,0.0740
1309.50,0.0744
1309.00,0.0749
1308.50,0.0753
1308.00,0.0758
1307.50,0.0762
1307.00,0.0767
1306.50,0.0771
1306.00,0.0776
1305.50,0.0781
1305.00,0.0786
1304.50,0.0791
1304.00,0.0796
1303.50,0.0801
1303.00,0.0807
1302.50,0.0812
1302.00,0.0818
1301.50,0.0824
1301.00,0.0830
1300.50,0.0836
1300.00,0.0842
1299.50,0.0849
1299.00,0.0856
1298.50,0.0863
1298.00,0.0871
1297.50,0.0878
1297.00,0.0886
1296.50,0.0894
1296.00,0.0903
1295.50,0.0912
1295.00,0.0920
1294.50,0.0930
1294.00,0.0939
1293.50,0.0949
1293.00,0.0959
1292.50,0.0969
1292.00,0.0980
1291.50,0.0991
1291.00,0.1003
1290.50,0.1015
1290.00,0.1027
1289.50,0.1040
1289.00,0.1053
1288.50,0.1066
1288.00,0.1081
1287.50,0.1096
1287.00,0.1112
1286.50,0.1128
1286.00,0.1146
1285.50,0.1164
1285.00,0.1183
1284.50,0.1203
1284.00,0.1225
1283.50,0.1248
1283.00,0.1273
1282.50,0.1299
1282.00,0.1327
1281.50,0.1357
1281.00,0.1390
1280.50,0.1425
1280.00,0.1463
1279.50,0.1504
1279.00,0.1549
1278.50,0.1597
1278.00,0.1651
1277.50,0.1709
1277.00,0.1773
1276.50,0.1844
1276.00,0.1922
1275.50,0.2009
1275.00,0.2105
1274.50,0.2211
1274.00,0.2330
1273.50,0.2463
1273.00,0.2613
1272.50,0.2784
1272.00,0.2979
1271.50,0.3202
1271.00,0.3458
1270.50,0.3750
1270.00,0.4085
1269.50,0.4469
1269.00,0.4907
1268.50,0.5401
1268.00,0.5949
1267.50,0.6549
1267.00,0.7195
1266.50,0.7872
1266.00,0.8559
1265.50,0.9242
1265.00,0.9900
1264.50,1.0505
1264.00,1.1036
1263.50,1.1488
1263.00,1.1855
1262.50,1.2118
1262.00,1.2271
1261.50,1.2331
1261.00,1.2309
1260.50,1.2197
1260.00,1.2001
1259.50,1.1747
1259.00,1.1449
1258.50,1.1101
1258.00,1.0713
1257.50,1.0306
1257.00,0.9893
1256.50,0.9475
1256.00,0.9058
1255.50,0.8658
1255.00,0.8275
1254.50,0.7900
1254.00,0.7529
1253.50,0.7161
1253.00,0.6792
1252.50,0.6413
1252.00,0.6024
1251.50,0.5634
1251.00,0.5249
1250.50,0.4874
1250.00,0.4516
1249.50,0.4184
1249.00,0.3880
1248.50,0.3605
1248.00,0.3358
1247.50,0.3140
1247.00,0.2947
1246.50,0.2778
1246.00,0.2629
1245.50,0.2499
1245.00,0.2385
1244.50,0.2284
1244.00,0.2194
1243.50,0.2115
1243.00,0.2046
1242.50,0.1984
1242.00,0.1928
1241.50,0.1879
1241.00,0.1835
1240.50,0.1796
1240.00,0.1761
1239.50,0.1729
1239.00,0.1702
1238.50,0.1677
1238.00,0.1654
1237.50,0.1635
1237.00,0.1617
1236.50,0.1602
1236.00,0.1588
1235.50,0.1576
1235.00,0.1566
1234.50,0.1558
1234.00,0.1550
1233.50,0.1545
1233.00,0.1540
1232.50,0.1537
1232.00,0.1535
1231.50,0.1534
1231.00,0.1535
1230.50,0.1536
1230.00,0.1539
1229.50,0.1542
1229.00,0.1547
1228.50,0.1552
1228.00,0.1558
1227.50,0.1565
1227.00,0.1573
1226.50,0.1582
1226.00,0.1591
1225.50,0.1602
1225.00,0.1613
1224.50,0.1625
1224.00,0.1638
1223.50,0.1652
1223.00,0.1666
1222.50,0.1681
1222.00,0.1696
1221.50,0.1713
1221.00,0.1730
1220.50,0.1747
1220.00,0.1765
1219.50,0.1784
1219.00,0.1804
1218.50,0.1824
1218.00,0.1844
1217.50,0.1865
1217.00,0.1887
1216.50,0.1909
1216.00,0.1931
1215.50,0.1953
1215.00,0.1976
1214.50,0.1999
1214.00,0.2022
1213.50,0.2046
1213.00,0.2069
1212.50,0.2093
1212.00,0.2117
1211.50,0.2141
1211.00,0.2165
1210.50,0.2189
1210.00,0.2213
1209.50,0.2236
1209.00,0.2260
1208.50,0.2284
1208.00,0.2307
1207.50,0.2331
1207.00,0.2354
1206.50,0.2377
1206.00,0.2400
1205.50,0.2422
1205.00,0.2445
1204.50,0.2466
1204.00,0.2487
1203.50,0.2508
1203.00,0.2529
1202.50,0.2549
1202.00,0.2569
1201.50,0.2589
1201.00,0.2608
1200.50,0.2627
1200.00,0.2645
1199.50,0.2663
1199.00,0.2681
1198.50,0.2698
1198.00,0.2715
1197.50,0.2731
1197.00,0.2748
1196.50,0.2763
1196.00,0.2778
1195.50,0.2793
1195.00,0.2807
1194.50,0.2821
1194.00,0.2835
1193.50,0.2848
1193.00,0.2862
1192.50,0.2874
1192.00,0.2887
1191.50,0.2899
1191.00,0.2912
1190.50,0.2923
1190.00,0.2934
1189.50,0.2945
1189.00,0.2956
1188.50,0.2966
1188.00,0.2976
1187.50,0.2987
1187.00,0.2997
1186.50,0.3006
1186.00,0.3016
1185.50,0.3025
1185.00,0.3035
1184.50,0.3044
1184.00,0.3053
1183.50,0.3062
1183.00,0.3072
1182.50,0.3081
1182.00,0.3090
1181.50,0.3099
1181.00,0.3109
1180.50,0.3118
1180.00,0.3127
1179.50,0.3136
1179.00,0.3147
1178.50,0.3157
1178.00,0.3166
1177.50,0.3176
1177.00,0.3187
1176.50,0.3197
1176.00,0.3207
1175.50,0.3218
1175.00,0.3230
1174.50,0.3242
1174.00,0.3252
1173.50,0.3263
1173.00,0.3275
1172.50,0.3286
1172.00,0.3297
1171.50,0.3308
1171.00,0.3319
1170.50,0.3330
1170.00,0.3341
1169.50,0.3352
1169.00,0.3364
1168.50,0.3376
1168.00,0.3388
1167.50,0.3400
1167.00,0.3414
1166.50,0.3427
1166.00,0.3439
1165.50,0.3453
1165.00,0.3468
1164.50,0.3483
1164.00,0.3497
1163.50,0.3512
1163.00,0.3528
1162.50,0.3544
1162.00,0.3560
1161.50,0.3577
1161.00,0.3594
1160.50,0.3612
1160.00,0.3630
1159.50,0.3649
1159.00,0.3669
1158.50,0.3689
1158.00,0.3708
1157.50,0.3729
1157.00,0.3751
1156.50,0.3773
1156.00,0.3795
1155.50,0.3818
1155.00,0.3842
1154.50,0.3867
1154.00,0.3892
1153.50,0.3917
1153.00,0.3944
1152.50,0.3971
1152.00,0.3999
1151.50,0.4028
1151.00,0.4058
1150.50,0.4088
1150.00,0.4119
1149.50,0.4151
1149.00,0.4185
1148.50,0.4219
1148.00,0.4253
1147.50,0.4289
1147.00,0.4327
1146.50,0.4366
1146.00,0.4404
1145.50,0.4445
1145.00,0.4487
1144.50,0.4530
1144.00,0.4574
1143.50,0.4619
1143.00,0.4667
1142.50,0.4715
1142.00,0.4765
1141.50,0.4816
1141.00,0.4870
1140.50,0.4925
1140.00,0.4980
1139.50,0.5037
1139.00,0.5098
1138.50,0.5159
1138.00,0.5220
1137.50,0.5283
1137.00,0.5350
1136.50,0.5417
1136.00,0.5486
1135.50,0.5557
1135.00,0.5632
1134.50,0.5709
1134.00,0.5788
1133.50,0.5869
1133.00,0.5954
1132.50,0.6041
1132.00,0.6129
1131.50,0.6222
1131.00,0.6320
1130.50,0.6419
1130.00,0.6519
1129.50,0.6624
1129.00,0.6735
1128.50,0.6847
1128.00,0.6960
1127.50,0.7077
1127.00,0.7201
1126.50,0.7328
1126.00,0.7455
1125.50,0.7586
1125.00,0.7723
1124.50,0.7861
1124.00,0.8002
1123.50,0.8148
1123.00,0.8298
1122.50,0.8450
1122.00,0.8603
1121.50,0.8761
1121.00,0.8927
1120.50,0.9091
1120.00,0.9254
1119.50,0.9420
1119.00,0.9594
1118.50,0.9769
1118.00,0.9940
1117.50,1.0115
1117.00,1.0296
1116.50,1.0478
1116.00,1.0656
1115.50,1.0836
1115.00,1.1020
1114.50,1.1202
1114.00,1.1380
1113.50,1.1563
1113.00,1.1749
1112.50,1.1928
1112.00,1.2100
1111.50,1.2280
1111.00,1.2470
1110.50,1.2650
1110.00,1.2816
1109.50,1.2984
1109.00,1.3163
1108.50,1.3337
1108.00,1.3498
1107.50,1.3657
1107.00,1.3823
1106.50,1.3981
1106.00,1.4129
1105.50,1.4280
1105.00,1.4437
1104.50,1.4578
1104.00,1.4704
1103.50,1.4841
1103.00,1.4992
1102.50,1.5125
1102.00,1.5232
1101.50,1.5347
1101.00,1.5482
1100.50,1.5604
1100.00,1.5696
1099.50,1.5787
1099.00,1.5894
1098.50,1.5995
1098.00,1.6075
1097.50,1.6156
1097.00,1.6243
1096.50,1.6313
1096.00,1.6364
1095.50,1.6429
1095.00,1.6509
1094.50,1.6564
1094.00,1.6590
1093.50,1.6631
1093.00,1.6699
1092.50,1.6748
1092.00,1.6760
1091.50,1.6776
1091.00,1.6814
1090.50,1.6843
1090.00,1.6841
1089.50,1.6839
1089.00,1.6850
1088.50,1.6855
1088.00,1.6849
1087.50,1.6855
1087.00,1.6866
1086.50,1.6850
1086.00,1.6813
1085.50,1.6800
1085.00,1.6809
1084.50,1.6790
1084.00,1.6739
1083.50,1.6705
1083.00,1.6703
1082.50,1.6689
1082.00,1.6640
1081.50,1.6591
1081.00,1.6564
1080.50,1.6535
1080.00,1.6490
1079.50,1.6449
1079.00,1.6415
1078.50,1.6366
1078.00,1.6308
1077.50,1.6268
1077.00,1.6240
1076.50,1.6187
1076.00,1.6113
1075.50,1.6058
1075.00,1.6030
1074.50,1.5985
1074.00,1.5910
1073.50,1.5843
1073.00,1.5801
1072.50,1.5755
1072.00,1.5688
1071.50,1.5621
1071.00,1.5572
1070.50,1.5522
1070.00,1.5462
1069.50,1.5405
1069.00,1.5355
1068.50,1.5293
1068.00,1.5227
1067.50,1.5179
1067.00,1.5146
1066.50,1.5096
1066.00,1.5026
1065.50,1.4969
1065.00,1.4931
1064.50,1.4880
1064.00,1.4805
1063.50,1.4732
1063.00,1.4680
1062.50,1.4635
1062.00,1.4581
1061.50,1.4527
1061.00,1.4479
1060.50,1.4425
1060.00,1.4368
1059.50,1.4322
1059.00,1.4280
1058.50,1.4224
1058.00,1.4158
1057.50,1.4110
1057.00,1.4076
1056.50,1.4030
1056.00,1.3965
1055.50,1.3906
1055.00,1.3869
1054.50,1.3833
1054.00,1.3783
1053.50,1.3733
1053.00,1.3695
1052.50,1.3659
1052.00,1.3618
1051.50,1.3580
1051.00,1.3546
1050.50,1.3506
1050.00,1.3465
1049.50,1.3442
1049.00,1.3428
1048.50,1.3399
1048.00,1.3356
1047.50,1.3329
1047.00,1.3326
1046.50,1.3320
1046.00,1.3295
1045.50,1.3270
1045.00,1.3259
1044.50,1.3255
1044.00,1.3249
1043.50,1.3249
1043.00,1.3252
1042.50,1.3249
1042.00,1.3237
1041.50,1.3229
1041.00,1.3227
1040.50,1.3221
1040.00,1.3213
1039.50,1.3221
1039.00,1.3245
1038.50,1.3260
1038.00,1.3260
1037.50,1.3264
1037.00,1.3284
1036.50,1.3309
1036.00,1.3324
1035.50,1.3336
1035.00,1.3353
1034.50,1.3374
1034.00,1.3397
1033.50,1.3425
1033.00,1.3453
1032.50,1.3471
1032.00,1.3487
1031.50,1.3518
1031.00,1.3558
1030.50,1.3584
1030.00,1.3595
1029.50,1.3616
1029.00,1.3657
1028.50,1.3696
1028.00,1.3717
1027.50,1.3736
1027.00,1.3768
1026.50,1.3806
1026.00,1.3839
1025.50,1.3868
1025.00,1.3894
1024.50,1.3912
1024.00,1.3927
1023.50,1.3950
1023.00,1.3973
1022.50,1.3977
1022.00,1.3967
1021.50,1.3966
1021.00,1.3979
1020.50,1.3979
1020.00,1.3951
1019.50,1.3916
1019.00,1.3889
1018.50,1.3858
1018.00,1.3805
1017.50,1.3733
1017.00,1.3653
1016.50,1.3563
1016.00,1.3462
1015.50,1.3350
1015.00,1.3222
1014.50,1.3071
1014.00,1.2905
1013.50,1.2741
1013.00,1.2575
1012.50,1.2388
1012.00,1.2181
1011.50,1.1974
1011.00,1.1772
1010.50,1.1564
1010.00,1.1343
1009.50,1.1117
1009.00,1.0896
1008.50,1.0680
1008.00,1.0465
1007.50,1.0252
1007.00,1.0042
1006.50,0.9835
1006.00,0.9636
1005.50,0.9448
1005.00,0.9267
1004.50,0.9087
1004.00,0.8911
1003.50,0.8746
1003.00,0.8594
1002.50,0.8446
1002.00,0.8301
1001.50,0.8162
1001.00,0.8035
1000.50,0.7915
1000.00,0.7800
999.50,0.7690
999.00,0.7587
998.50,0.7491
998.00,0.7401
997.50,0.7318
997.00,0.7239
996.50,0.7164
996.00,0.7092
995.50,0.7028
995.00,0.6969
994.50,0.6912
994.00,0.6856
993.50,0.6804
993.00,0.6760
992.50,0.6719
992.00,0.6678
991.50,0.6639
991.00,0.6603
990.50,0.6572
990.00,0.6542
989.50,0.6514
989.00,0.6487
988.50,0.6462
988.00,0.6440
987.50,0.6423
987.00,0.6406
986.50,0.6389
986.00,0.6373
985.50,0.6359
985.00,0.6350
984.50,0.6342
984.00,0.6332
983.50,0.6322
983.00,0.6317
982.50,0.6313
982.00,0.6310
981.50,0.6306
981.00,0.6304
980.50,0.6303
980.00,0.6304
979.50,0.6307
979.00,0.6310
978.50,0.6313
978.00,0.6317
977.50,0.6323
977.00,0.6332
976.50,0.6340
976.00,0.6345
975.50,0.6353
975.00,0.6364
974.50,0.6376
974.00,0.6387
973.50,0.6398
973.00,0.6410
972.50,0.6425
972.00,0.6439
971.50,0.6454
971.00,0.6469
970.50,0.6484
970.00,0.6501
969.50,0.6520
969.00,0.6540
968.50,0.6557
968.00,0.6574
967.50,0.6593
967.00,0.6616
966.50,0.6639
966.00,0.6659
965.50,0.6680
965.00,0.6703
964.50,0.6727
964.00,0.6752
963.50,0.6775
963.00,0.6800
962.50,0.6826
962.00,0.6853
961.50,0.6881
961.00,0.6909
960.50,0.6936
960.00,0.6962
959.50,0.6992
959.00,0.7022
958.50,0.7051
958.00,0.7076
957.50,0.7102
957.00,0.7132
956.50,0.7163
956.00,0.7189
955.50,0.7214
955.00,0.7240
954.50,0.7268
954.00,0.7294
953.50,0.7320
953.00,0.7344
952.50,0.7366
952.00,0.7390
951.50,0.7416
951.00,0.7444
950.50,0.7470
950.00,0.7494
949.50,0.7522
949.00,0.7553
948.50,0.7584
948.00,0.7612
947.50,0.7640
947.00,0.7673
946.50,0.7707
946.00,0.7741
945.50,0.7773
945.00,0.7806
944.50,0.7840
944.00,0.7876
943.50,0.7913
943.00,0.7950
942.50,0.7984
942.00,0.8019
941.50,0.8058
941.00,0.8100
940.50,0.8139
940.00,0.8175
939.50,0.8213
939.00,0.8256
938.50,0.8299
938.00,0.8339
937.50,0.8378
937.00,0.8421
936.50,0.8466
936.00,0.8512
935.50,0.8556
935.00,0.8599
934.50,0.8642
934.00,0.8688
933.50,0.8737
933.00,0.8788
932.50,0.8836
932.00,0.8881
931.50,0.8930
931.00,0.8983
930.50,0.9036
930.00,0.9083
929.50,0.9131
929.00,0.9185
928.50,0.9242
928.00,0.9296
927.50,0.9347
927.00,0.9398
926.50,0.9450
926.00,0.9505
925.50,0.9560
925.00,0.9615
924.50,0.9667
924.00,0.9719
923.50,0.9776
923.00,0.9838
922.50,0.9897
922.00,0.9952
921.50,1.0011
921.00,1.0079
920.50,1.0149
920.00,1.0214
919.50,1.0276
919.00,1.0343
918.50,1.0414
918.00,1.0484
917.50,1.0551
917.00,1.0618
916.50,1.0683
916.00,1.0750
915.50,1.0820
915.00,1.0888
914.50,1.0948
914.00,1.1003
913.50,1.1062
913.00,1.1128
912.50,1.1188
912.00,1.1237
911.50,1.1285
911.00,1.1341
910.50,1.1398
910.00,1.1447
909.50,1.1492
909.00,1.1538
908.50,1.1586
908.00,1.1636
907.50,1.1687
907.00,1.1738
906.50,1.1785
906.00,1.1832
905.50,1.1888
905.00,1.1950
904.50,1.2005
904.00,1.2051
903.50,1.2103
903.00,1.2169
902.50,1.2238
902.00,1.2298
901.50,1.2357
901.00,1.2425
900.50,1.2499
900.00,1.2571
899.50,1.2639
899.00,1.2709
898.50,1.2780
898.00,1.2854
897.50,1.2935
897.00,1.3015
896.50,1.3085
896.00,1.3151
895.50,1.3229
895.00,1.3321
894.50,1.3407
894.00,1.3478
893.50,1.3551
893.00,1.3640
892.50,1.3732
892.00,1.3808
891.50,1.3874
891.00,1.3948
890.50,1.4033
890.00,1.4126
889.50,1.4217
889.00,1.4301
888.50,1.4376
888.00,1.4459
887.50,1.4564
887.00,1.4680
886.50,1.4776
886.00,1.4853
885.50,1.4945
885.00,1.5070
884.50,1.5199
884.00,1.5303
883.50,1.5398
883.00,1.5512
882.50,1.5646
882.00,1.5775
881.50,1.5890
881.00,1.5997
880.50,1.6106
880.00,1.6232
879.50,1.6381
879.00,1.6531
878.50,1.6652
878.00,1.6760
877.50,1.6904
877.00,1.7088
876.50,1.7251
876.00,1.7363
875.50,1.7474
875.00,1.7634
874.50,1.7816
874.00,1.7967
873.50,1.8094
873.00,1.8234
872.50,1.8400
872.00,1.8573
871.50,1.8737
871.00,1.8871
870.50,1.8966
870.00,1.9062
869.50,1.9211
869.00,1.9387
868.50,1.9499
868.00,1.9537
867.50,1.9594
867.00,1.9716
866.50,1.9829
866.00,1.9864
865.50,1.9866
865.00,1.9911
864.50,1.9987
864.00,2.0043
863.50,2.0068
863.00,2.0078
862.50,2.0085
862.00,2.0109
861.50,2.0172
861.00,2.0241
860.50,2.0258
860.00,2.0242
859.50,2.0280
859.00,2.0382
858.50,2.0452
858.00,2.0443
857.50,2.0440
857.00,2.0520
856.50,2.0637
856.00,2.0712
855.50,2.0755
855.00,2.0822
854.50,2.0919
854.00,2.1019
853.50,2.1114
853.00,2.1190
852.50,2.1238
852.00,2.1308
851.50,2.1469
851.00,2.1689
850.50,2.1837
850.00,2.1883
849.50,2.1955
849.00,2.2125
848.50,2.2285
848.00,2.2331
847.50,2.2338
847.00,2.2418
846.50,2.2536
846.00,2.2597
845.50,2.2598
845.00,2.2600
844.50,2.2630
844.00,2.2693
843.50,2.2791
843.00,2.2868
842.50,2.2846
842.00,2.2786
841.50,2.2828
841.00,2.2970
840.50,2.3032
840.00,2.2944
839.50,2.2872
839.00,2.2941
838.50,2.3054
838.00,2.3066
837.50,2.3011
837.00,2.3006
836.50,2.3063
836.00,2.3125
835.50,2.3169
835.00,2.3185
834.50,2.3178
834.00,2.3210
833.50,2.3356
833.00,2.3538
832.50,2.3565
832.00,2.3449
831.50,2.3415
831.00,2.3554
830.50,2.3684
830.00,2.3657
829.50,2.3621
829.00,2.3756
828.50,2.3996
828.00,2.4151
827.50,2.4188
827.00,2.4209
826.50,2.4259
826.00,2.4346
825.50,2.4498
825.00,2.4614
824.50,2.4547
824.00,2.4414
823.50,2.4476
823.00,2.4720
822.50,2.4795
822.00,2.4616
821.50,2.4527
821.00,2.4712
820.50,2.4941
820.00,2.4922
819.50,2.4757
819.00,2.4696
818.50,2.4767
818.00,2.4855
817.50,2.4893
817.00,2.4853
816.50,2.4744
816.00,2.4674
815.50,2.4776
815.00,2.4960
814.50,2.4965
814.00,2.4806
813.50,2.4766
813.00,2.4936
812.50,2.5057
812.00,2.4955
811.50,2.4847
811.00,2.4935
810.50,2.5096
810.00,2.5099
809.50,2.4970
809.00,2.4887
808.50,2.4901
808.00,2.4960
807.50,2.5035
807.00,2.5051
806.50,2.4946
806.00,2.4830
805.50,2.4870
805.00,2.5035
804.50,2.5083
804.00,2.4968
803.50,2.4936
803.00,2.5107
802.50,2.5268
802.00,2.5200
801.50,2.5034
801.00,2.4991
800.50,2.5056
800.00,2.5090
799.50,2.5051
799.00,2.4981
798.50,2.4926
798.00,2.4949
797.50,2.5087
797.00,2.5213
796.50,2.5153
796.00,2.5005
795.50,2.5026
795.00,2.5235
794.50,2.5337
794.00,2.5187
793.50,2.5047
793.00,2.5125
792.50,2.5289
792.00,2.5297
791.50,2.5172
791.00,2.5092
790.50,2.5100
790.00,2.5140
789.50,2.5182
789.00,2.5183
788.50,2.5103
788.00,2.5024
787.50,2.5087
787.00,2.5239
786.50,2.5246
786.00,2.5103
785.50,2.5069
785.00,2.5245
784.50,2.5383
784.00,2.5258
783.50,2.5049
783.00,2.5009
782.50,2.5115
782.00,2.5191
781.50,2.5172
781.00,2.5121
780.50,2.5091
780.00,2.5105
779.50,2.5190
779.00,2.5269
778.50,2.5209
778.00,2.5083
777.50,2.5087
777.00,2.5234
776.50,2.5292
776.00,2.5172
775.50,2.5099
775.00,2.5224
774.50,2.5382
774.00,2.5345
773.50,2.5197
773.00,2.5154
772.50,2.5251
772.00,2.5373
771.50,2.5433
771.00,2.5390
770.50,2.5264
770.00,2.5180
769.50,2.5246
769.00,2.5374
768.50,2.5331
768.00,2.5137
767.50,2.5073
767.00,2.5245
766.50,2.5393
766.00,2.5283
765.50,2.5098
765.00,2.5103
764.50,2.5272
764.00,2.5381
763.50,2.5328
763.00,2.5210
762.50,2.5133
762.00,2.5128
761.50,2.5190
761.00,2.5224
760.50,2.5138
760.00,2.5034
759.50,2.5097
759.00,2.5300
758.50,2.5379
758.00,2.5249
757.50,2.5161
757.00,2.5280
756.50,2.5435
756.00,2.5374
755.50,2.5174
755.00,2.5081
754.50,2.5151
754.00,2.5257
753.50,2.5292
753.00,2.5246
752.50,2.5189
752.00,2.5214
751.50,2.5348
751.00,2.5453
750.50,2.5348
750.00,2.5151
749.50,2.5129
749.00,2.5315
748.50,2.5416
748.00,2.5269
747.50,2.5124
747.00,2.5217
746.50,2.5439
746.00,2.5497
745.50,2.5329
745.00,2.5135
744.50,2.5056
744.00,2.5109
743.50,2.5266
743.00,2.5390
742.50,2.5362
742.00,2.5301
741.50,2.5383
741.00,2.5567
740.50,2.5584
740.00,2.5388
739.50,2.5253
739.00,2.5329
738.50,2.5444
738.00,2.5378
737.50,2.5228
737.00,2.5216
736.50,2.5358
736.00,2.5499
735.50,2.5532
735.00,2.5476
734.50,2.5403
734.00,2.5373
733.50,2.5432
733.00,2.5488
732.50,2.5391
732.00,2.5237
731.50,2.5243
731.00,2.5429
730.50,2.5523
730.00,2.5351
729.50,2.5139
729.00,2.5131
728.50,2.5269
728.00,2.5323
727.50,2.5232
727.00,2.5147
726.50,2.5182
726.00,2.5299
725.50,2.5398
725.00,2.5378
724.50,2.5245
724.00,2.5148
723.50,2.5218
723.00,2.5390
722.50,2.5421
722.00,2.5277
721.50,2.5210
721.00,2.5357
720.50,2.5519
720.00,2.5456
719.50,2.5282
719.00,2.5248
718.50,2.5383
718.00,2.5527
717.50,2.5558
717.00,2.5495
716.50,2.5416
716.00,2.5380
715.50,2.5412
715.00,2.5448
714.50,2.5388
714.00,2.5315
713.50,2.5404
713.00,2.5632
712.50,2.5716
712.00,2.5542
711.50,2.5361
711.00,2.5386
710.50,2.5533
710.00,2.5583
709.50,2.5512
709.00,2.5465
708.50,2.5495
708.00,2.5528
707.50,2.5510
707.00,2.5419
706.50,2.5301
706.00,2.5267
705.50,2.5398
705.00,2.5595
704.50,2.5625
704.00,2.5513
703.50,2.5508
703.00,2.5691
702.50,2.5835
702.00,2.5737
701.50,2.5556
701.00,2.5537
700.50,2.5669
700.00,2.5746
699.50,2.5667
699.00,2.5545
698.50,2.5519
698.00,2.5612
697.50,2.5750
697.00,2.5783
696.50,2.5650
696.00,2.5520
695.50,2.5592
695.00,2.5826
694.50,2.5918
694.00,2.5765
693.50,2.5627
693.00,2.5702
692.50,2.5863
692.00,2.5861
691.50,2.5726
691.00,2.5669
690.50,2.5745
690.00,2.5818
689.50,2.5761
689.00,2.5583
688.50,2.5389
688.00,2.5297
687.50,2.5360
687.00,2.5436
686.50,2.5370
686.00,2.5308
685.50,2.5472
685.00,2.5840
684.50,2.6036
684.00,2.5838
683.50,2.5585
683.00,2.5608
682.50,2.5837
682.00,2.5937
681.50,2.5773
681.00,2.5556
680.50,2.5488
680.00,2.5573
679.50,2.5695
679.00,2.5700
678.50,2.5569
678.00,2.5463
677.50,2.5529
677.00,2.5704
676.50,2.5716
676.00,2.5520
675.50,2.5397
675.00,2.5524
674.50,2.5712
674.00,2.5670
673.50,2.5475
673.00,2.5413
672.50,2.5565
672.00,2.5764
671.50,2.5798
671.00,2.5618
670.50,2.5352
670.00,2.5172
669.50,2.5130
669.00,2.5107
668.50,2.4991
668.00,2.4987
667.50,2.5421
667.00,2.5991
666.50,2.6068
666.00,2.5772
665.50,2.5527
665.00,2.5569
664.50,2.5804
664.00,2.5882
663.50,2.5693
663.00,2.5494
662.50,2.5505
662.00,2.5692
661.50,2.5896
661.00,2.5975
660.50,2.5958
660.00,2.5985
659.50,2.6142
659.00,2.6269
658.50,2.6078
658.00,2.5728
657.50,2.5583
657.00,2.5758
656.50,2.5974
656.00,2.5888
655.50,2.5669
655.00,2.5651
654.50,2.5849
654.00,2.5994
653.50,2.5914
653.00,2.5770
652.50,2.5778
652.00,2.5931
651.50,2.6084
651.00,2.6042
650.50,2.5833
650.00,2.5704
649.50,2.5827
649.00,2.6145
648.50,2.6226
648.00,2.5945
647.50,2.5715
647.00,2.5799
646.50,2.6024
646.00,2.5989
645.50,2.5672
645.00,2.5455
644.50,2.5576
644.00,2.5911
643.50,2.6113
643.00,2.6029
642.50,2.5905
642.00,2.6006
641.50,2.6330
641.00,2.6430
640.50,2.6037
640.00,2.5626
639.50,2.5591
639.00,2.5956
638.50,2.6332
638.00,2.6311
637.50,2.6103
637.00,2.6114
636.50,2.6387
636.00,2.6534
635.50,2.6232
635.00,2.5771
634.50,2.5592
634.00,2.5758
633.50,2.5982
633.00,2.5867
632.50,2.5484
632.00,2.5279
631.50,2.5476
631.00,2.5858
630.50,2.5889
630.00,2.5578
629.50,2.5392
629.00,2.5577
628.50,2.5897
628.00,2.5844
627.50,2.5475
627.00,2.5269
626.50,2.5410
626.00,2.5650
625.50,2.5607
625.00,2.5288
624.50,2.5103
624.00,2.5270
623.50,2.5651
623.00,2.5831
622.50,2.5640
622.00,2.5500
621.50,2.5738
621.00,2.6346
620.50,2.6753
620.00,2.6497
619.50,2.6097
619.00,2.6081
618.50,2.6471
618.00,2.6736
617.50,2.6380
617.00,2.5807
616.50,2.5585
616.00,2.5727
615.50,2.5899
615.00,2.5699
614.50,2.5318
614.00,2.5228
613.50,2.5540
613.00,2.6092
612.50,2.6321
612.00,2.6087
611.50,2.5979
611.00,2.6339
610.50,2.6856
610.00,2.6722
609.50,2.5973
609.00,2.5448
608.50,2.5521
608.00,2.5999
607.50,2.6266
607.00,2.5964
606.50,2.5706
606.00,2.5969
605.50,2.6790
605.00,2.7611
604.50,2.7408
604.00,2.6777
603.50,2.6578
603.00,2.6998
602.50,2.7311
602.00,2.6651
601.50,2.5903
601.00,2.6009
600.50,2.7202
600.00,2.8693
599.50,2.8584
599.00,2.7532
598.50,2.7069
598.00,2.7441
597.50,2.8138
597.00,2.7804
596.50,2.6824
596.00,2.6304
595.50,2.6386
595.00,2.6922
594.50,2.7065
594.00,2.6538
593.50,2.6148
593.00,2.6298
592.50,2.6819
592.00,2.6902
591.50,2.6264
591.00,2.5752
590.50,2.5889
590.00,2.6548
589.50,2.7072
589.00,2.6950
588.50,2.6805
588.00,2.7154
587.50,2.7842
587.00,2.7948
586.50,2.7149
586.00,2.6602
585.50,2.6680
585.00,2.7132
584.50,2.7249
584.00,2.6727
583.50,2.6214
583.00,2.6160
582.50,2.6613
582.00,2.7074
581.50,2.6816
581.00,2.6155
580.50,2.5925
580.00,2.6312
579.50,2.6840
579.00,2.6720
578.50,2.6146
578.00,2.5874
577.50,2.6059
577.00,2.6504
576.50,2.6645
576.00,2.6345
575.50,2.6128
575.00,2.6315
574.50,2.6800
574.00,2.6989
573.50,2.6627
573.00,2.6248
572.50,2.6283
572.00,2.6584
571.50,2.6592
571.00,2.6119
570.50,2.5752
570.00,2.5858
569.50,2.6295
569.00,2.6594
568.50,2.6379
568.00,2.6009
567.50,2.5896
567.00,2.6182
566.50,2.6573
566.00,2.6575
565.50,2.6307
565.00,2.6227
564.50,2.6527
564.00,2.6894
563.50,2.6817
563.00,2.6460
562.50,2.6422
562.00,2.6875
561.50,2.7381
561.00,2.7138
560.50,2.6419
560.00,2.6028
559.50,2.6110
559.00,2.6398
558.50,2.6408
558.00,2.6154
557.50,2.6033
557.00,2.6255
556.50,2.6635
556.00,2.6720
555.50,2.6480
555.00,2.6356
554.50,2.6697
554.00,2.7349
553.50,2.7595
553.00,2.7177
552.50,2.6816
552.00,2.6849
551.50,2.7021
551.00,2.6878
550.50,2.6483
550.00,2.6370
549.50,2.6637
549.00,2.7058
548.50,2.7116
548.00,2.6689
547.50,2.6279
547.00,2.6238
546.50,2.6605
546.00,2.7011
545.50,2.7033
545.00,2.6880
544.50,2.7034
544.00,2.7571
543.50,2.7983
543.00,2.7586
542.50,2.6955
542.00,2.6765
541.50,2.6935
541.00,2.7053
540.50,2.6800
540.00,2.6524
539.50,2.6490
539.00,2.6717
538.50,2.7002
538.00,2.6992
537.50,2.6730
537.00,2.6626
536.50,2.6968
536.00,2.7513
535.50,2.7532
535.00,2.6998
534.50,2.6757
534.00,2.7129
533.50,2.7721
533.00,2.7604
532.50,2.6830
532.00,2.6344
531.50,2.6283
531.00,2.6356
530.50,2.6200
530.00,2.5849
529.50,2.5653
529.00,2.5842
528.50,2.6409
528.00,2.6897
527.50,2.6781
527.00,2.6408
526.50,2.6532
526.00,2.7287
525.50,2.7727
525.00,2.7117
524.50,2.6511
524.00,2.6547
523.50,2.6941
523.00,2.7042
522.50,2.6661
522.00,2.6330
521.50,2.6287
521.00,2.6588
520.50,2.7059
520.00,2.7185
519.50,2.6870
519.00,2.6582
518.50,2.6705
518.00,2.7118
517.50,2.7228
517.00,2.6882
516.50,2.6726
516.00,2.6930
515.50,2.7108
515.00,2.6927
514.50,2.6530
514.00,2.6427
513.50,2.6713
513.00,2.7007
512.50,2.6938
512.00,2.6846
511.50,2.6913
511.00,2.7033
510.50,2.7116
510.00,2.6944
509.50,2.6491
509.00,2.6135
508.50,2.6293
508.00,2.6908
507.50,2.7234
507.00,2.6846
506.50,2.6722
506.00,2.7360
505.50,2.8132
505.00,2.8029
504.50,2.7345
504.00,2.7112
503.50,2.7416
503.00,2.7983
502.50,2.8042
502.00,2.7622
501.50,2.7288
501.00,2.7149
500.50,2.7301
500.00,2.7481
499.50,2.7253
499.00,2.6845
498.50,2.6966
498.00,2.7789
497.50,2.8518
497.00,2.8117
496.50,2.7511
496.00,2.7730
495.50,2.8456
495.00,2.8485
494.50,2.7623
494.00,2.7126
493.50,2.7194
493.00,2.7449
492.50,2.7377
492.00,2.7026
491.50,2.6772
491.00,2.6724
490.50,2.7120
490.00,2.7732
489.50,2.7672
489.00,2.6990
488.50,2.6778
488.00,2.7402
487.50,2.7950
487.00,2.7357
486.50,2.6751
486.00,2.7096
485.50,2.8214
485.00,2.9064
484.50,2.8467
484.00,2.7863
483.50,2.7879
483.00,2.8298
482.50,2.8553
482.00,2.8010
481.50,2.7088
481.00,2.6399
480.50,2.6628
480.00,2.7816
479.50,2.8486
479.00,2.7535
478.50,2.6881
478.00,2.7413
477.50,2.8385
477.00,2.7862
476.50,2.6736
476.00,2.6742
475.50,2.7593
475.00,2.7943
474.50,2.7175
474.00,2.6715
473.50,2.6875
473.00,2.7499
472.50,2.9052
472.00,2.9862
471.50,2.8330
471.00,2.6866
470.50,2.6617
470.00,2.7650
469.50,2.8108
469.00,2.6720
468.50,2.5989
468.00,2.6790
467.50,2.8820
467.00,2.9445
466.50,2.7867
466.00,2.7554
465.50,2.8632
465.00,3.0063
464.50,2.9818
464.00,2.8322
463.50,2.6971
463.00,2.6098
462.50,2.6404
462.00,2.7719
461.50,2.8015
461.00,2.7027
460.50,2.6803
460.00,2.7855
459.50,3.0170
459.00,3.0091
458.50,2.7116
458.00,2.7090
457.50,2.9744
457.00,3.1162
456.50,2.8354
456.00,2.7016
455.50,2.6626
455.00,2.6851
454.50,2.8445
454.00,3.0157
453.50,2.8865
453.00,2.7082
452.50,2.6872
452.00,2.7735
451.50,2.7217
451.00,2.5728
450.50,2.5204
450.00,2.6136
449.50,2.8338
449.00,2.7938
448.50,2.5812
448.00,2.5797
447.50,2.7493
447.00,2.9983
446.50,3.0758
446.00,2.8183
445.50,2.7435
445.00,2.8251
444.50,3.0329
444.00,2.8377
443.50,2.6433
443.00,2.6418
442.50,2.7212
442.00,2.9682
441.50,3.2232
441.00,2.7912
440.50,2.5514
440.00,2.5774
439.50,2.7750
439.00,2.7881
438.50,2.5539
438.00,2.4680
437.50,2.5378
437.00,2.7342
436.50,2.7932
436.00,2.6328
435.50,2.6117
435.00,2.6522
434.50,2.7680
434.00,3.1450
433.50,2.8772
433.00,2.5452
432.50,2.4446
432.00,2.5664
431.50,2.8448
431.00,2.7223
430.50,2.5499
430.00,2.6237
429.50,3.1099
429.00,3.4506
428.50,2.7152
428.00,2.5732
427.50,2.6018
427.00,2.6647
426.50,2.8674
426.00,2.7889
425.50,2.5352
425.00,2.4732
424.50,2.5739
424.00,3.2850
423.50,2.8613
423.00,2.4679
422.50,2.3821
422.00,2.4849
421.50,2.9385
421.00,3.0923
420.50,2.5677
420.00,2.4402
419.50,2.5621
419.00,2.7130
418.50,2.6701
418.00,2.4867
417.50,2.5078
417.00,2.4975
416.50,2.6694
416.00,2.7723
415.50,2.4136
415.00,2.3309
414.50,2.4287
414.00,2.7847
413.50,2.6135
413.00,2.3482
412.50,2.3445
412.00,2.5365
411.50,3.0406
411.00,3.2179
410.50,2.6066
410.00,2.3894
409.50,2.4929
409.00,2.6616
408.50,2.9574
408.00,2.7834
407.50,2.4861
407.00,2.4531
406.50,2.7373
406.00,2.5774
405.50,2.2256
405.00,2.1950
404.50,2.2783
404.00,2.6119
403.50,2.7957
403.00,2.3059
402.50,2.1986
402.00,2.2442
401.50,2.6380
401.00,3.1475
400.50,2.4418
400.00,2.1079
