Created as New Dataset,Sample 003 By irlear Date Monday, July 06 2009
cm-1,A
4000.00,0.0377
3999.50,0.0377
3999.00,0.0377
3998.50,0.0377
3998.00,0.0377
3997.50,0.0377
3997.00,0.0377
3996.50,0.0377
3996.00,0.0377
3995.50,0.0377
3995.00,0.0377
3994.50,0.0377
3994.00,0.0377
3993.50,0.0377
3993.00,0.0376
3992.50,0.0376
3992.00,0.0376
3991.50,0.0376
3991.00,0.0376
3990.50,0.0376
3990.00,0.0376
3989.50,0.0376
3989.00,0.0376
3988.50,0.0376
3988.00,0.0376
3987.50,0.0376
3987.00,0.0376
3986.50,0.0375
3986.00,0.0375
3985.50,0.0375
3985.00,0.0374
3984.50,0.0374
3984.00,0.0374
3983.50,0.0374
3983.00,0.0375
3982.50,0.0375
3982.00,0.0375
3981.50,0.0375
3981.00,0.0375
3980.50,0.0375
3980.00,0.0375
3979.50,0.0375
3979.00,0.0374
3978.50,0.0374
3978.00,0.0374
3977.50,0.0374
3977.00,0.0374
3976.50,0.0374
3976.00,0.0374
3975.50,0.0374
3975.00,0.0374
3974.50,0.0374
3974.00,0.0374
3973.50,0.0374
3973.00,0.0374
3972.50,0.0374
3972.00,0.0374
3971.50,0.0374
3971.00,0.0374
3970.50,0.0374
3970.00,0.0374
3969.50,0.0374
3969.00,0.0374
3968.50,0.0373
3968.00,0.0373
3967.50,0.0373
3967.00,0.0373
3966.50,0.0373
3966.00,0.0373
3965.50,0.0373
3965.00,0.0373
3964.50,0.0373
3964.00,0.0373
3963.50,0.0373
3963.00,0.0373
3962.50,0.0373
3962.00,0.0373
3961.50,0.0373
3961.00,0.0373
3960.50,0.0373
3960.00,0.0373
3959.50,0.0373
3959.00,0.0373
3958.50,0.0373
3958.00,0.0372
3957.50,0.0372
3957.00,0.0372
3956.50,0.0372
3956.00,0.0372
3955.50,0.0372
3955.00,0.0372
3954.50,0.0372
3954.00,0.0372
3953.50,0.0372
3953.00,0.0372
3952.50,0.0372
3952.00,0.0372
3951.50,0.0372
3951.00,0.0372
3950.50,0.0373
3950.00,0.0373
3949.50,0.0373
3949.00,0.0373
3948.50,0.0373
3948.00,0.0372
3947.50,0.0372
3947.00,0.0372
3946.50,0.0372
3946.00,0.0372
3945.50,0.0372
3945.00,0.0372
3944.50,0.0372
3944.00,0.0373
3943.50,0.0372
3943.00,0.0372
3942.50,0.0373
3942.00,0.0373
3941.50,0.0372
3941.00,0.0372
3940.50,0.0372
3940.00,0.0372
3939.50,0.0372
3939.00,0.0371
3938.50,0.0371
3938.00,0.0371
3937.50,0.0371
3937.00,0.0371
3936.50,0.0371
3936.00,0.0370
3935.50,0.0370
3935.00,0.0371
3934.50,0.0371
3934.00,0.0372
3933.50,0.0372
3933.00,0.0372
3932.50,0.0372
3932.00,0.0372
3931.50,0.0372
3931.00,0.0371
3930.50,0.0371
3930.00,0.0371
3929.50,0.0371
3929.00,0.0371
3928.50,0.0371
3928.00,0.0371
3927.50,0.0371
3927.00,0.0371
3926.50,0.0371
3926.00,0.0371
3925.50,0.0372
3925.00,0.0372
3924.50,0.0372
3924.00,0.0371
3923.50,0.0371
3923.00,0.0371
3922.50,0.0371
3922.00,0.0371
3921.50,0.0371
3921.00,0.0371
3920.50,0.0371
3920.00,0.0371
3919.50,0.0372
3919.00,0.0372
3918.50,0.0371
3918.00,0.0371
3917.50,0.0372
3917.00,0.0372
3916.50,0.0371
3916.00,0.0371
3915.50,0.0371
3915.00,0.0371
3914.50,0.0371
3914.00,0.0371
3913.50,0.0370
3913.00,0.0370
3912.50,0.0370
3912.00,0.0370
3911.50,0.0371
3911.00,0.0371
3910.50,0.0371
3910.00,0.0371
3909.50,0.0371
3909.00,0.0371
3908.50,0.0371
3908.00,0.0371
3907.50,0.0372
3907.00,0.0372
3906.50,0.0373
3906.00,0.0373
3905.50,0.0373
3905.00,0.0373
3904.50,0.0373
3904.00,0.0374
3903.50,0.0375
3903.00,0.0374
3902.50,0.0373
3902.00,0.0373
3901.50,0.0374
3901.00,0.0374
3900.50,0.0373
3900.00,0.0373
3899.50,0.0373
3899.00,0.0374
3898.50,0.0374
3898.00,0.0373
3897.50,0.0373
3897.00,0.0373
3896.50,0.0373
3896.00,0.0372
3895.50,0.0372
3895.00,0.0372
3894.50,0.0372
3894.00,0.0372
3893.50,0.0373
3893.00,0.0373
3892.50,0.0373
3892.00,0.0373
3891.50,0.0372
3891.00,0.0373
3890.50,0.0374
3890.00,0.0374
3889.50,0.0373
3889.00,0.0373
3888.50,0.0373
3888.00,0.0373
3887.50,0.0373
3887.00,0.0373
3886.50,0.0372
3886.00,0.0372
3885.50,0.0372
3885.00,0.0373
3884.50,0.0373
3884.00,0.0373
3883.50,0.0373
3883.00,0.0374
3882.50,0.0374
3882.00,0.0374
3881.50,0.0374
3881.00,0.0375
3880.50,0.0375
3880.00,0.0375
3879.50,0.0375
3879.00,0.0374
3878.50,0.0374
3878.00,0.0373
3877.50,0.0373
3877.00,0.0373
3876.50,0.0374
3876.00,0.0374
3875.50,0.0374
3875.00,0.0374
3874.50,0.0374
3874.00,0.0375
3873.50,0.0375
3873.00,0.0375
3872.50,0.0375
3872.00,0.0375
3871.50,0.0376
3871.00,0.0376
3870.50,0.0376
3870.00,0.0375
3869.50,0.0376
3869.00,0.0377
3868.50,0.0376
3868.00,0.0375
3867.50,0.0375
3867.00,0.0375
3866.50,0.0375
3866.00,0.0375
3865.50,0.0375
3865.00,0.0376
3864.50,0.0376
3864.00,0.0377
3863.50,0.0376
3863.00,0.0376
3862.50,0.0376
3862.00,0.0376
3861.50,0.0376
3861.00,0.0376
3860.50,0.0376
3860.00,0.0376
3859.50,0.0376
3859.00,0.0376
3858.50,0.0376
3858.00,0.0377
3857.50,0.0377
3857.00,0.0378
3856.50,0.0379
3856.00,0.0380
3855.50,0.0380
3855.00,0.0382
3854.50,0.0383
3854.00,0.0383
3853.50,0.0384
3853.00,0.0383
3852.50,0.0382
3852.00,0.0383
3851.50,0.0384
3851.00,0.0384
3850.50,0.0382
3850.00,0.0381
3849.50,0.0381
3849.00,0.0381
3848.50,0.0381
3848.00,0.0381
3847.50,0.0381
3847.00,0.0381
3846.50,0.0381
3846.00,0.0381
3845.50,0.0382
3845.00,0.0383
3844.50,0.0384
3844.00,0.0384
3843.50,0.0385
3843.00,0.0386
3842.50,0.0387
3842.00,0.0387
3841.50,0.0387
3841.00,0.0388
3840.50,0.0389
3840.00,0.0390
3839.50,0.0390
3839.00,0.0389
3838.50,0.0389
3838.00,0.0388
3837.50,0.0389
3837.00,0.0391
3836.50,0.0390
3836.00,0.0389
3835.50,0.0389
3835.00,0.0391
3834.50,0.0392
3834.00,0.0392
3833.50,0.0392
3833.00,0.0392
3832.50,0.0392
3832.00,0.0392
3831.50,0.0392
3831.00,0.0392
3830.50,0.0392
3830.00,0.0392
3829.50,0.0392
3829.00,0.0393
3828.50,0.0393
3828.00,0.0393
3827.50,0.0393
3827.00,0.0393
3826.50,0.0394
3826.00,0.0394
3825.50,0.0394
3825.00,0.0394
3824.50,0.0394
3824.00,0.0394
3823.50,0.0395
3823.00,0.0395
3822.50,0.0396
3822.00,0.0397
3821.50,0.0396
3821.00,0.0395
3820.50,0.0396
3820.00,0.0397
3819.50,0.0396
3819.00,0.0396
3818.50,0.0396
3818.00,0.0396
3817.50,0.0396
3817.00,0.0395
3816.50,0.0394
3816.00,0.0395
3815.50,0.0397
3815.00,0.0398
3814.50,0.0397
3814.00,0.0396
3813.50,0.0396
3813.00,0.0396
3812.50,0.0396
3812.00,0.0396
3811.50,0.0396
3811.00,0.0397
3810.50,0.0397
3810.00,0.0397
3809.50,0.0397
3809.00,0.0398
3808.50,0.0398
3808.00,0.0398
3807.50,0.0398
3807.00,0.0399
3806.50,0.0400
3806.00,0.0401
3805.50,0.0401
3805.00,0.0400
3804.50,0.0401
3804.00,0.0402
3803.50,0.0402
3803.00,0.0403
3802.50,0.0403
3802.00,0.0403
3801.50,0.0402
3801.00,0.0404
3800.50,0.0406
3800.00,0.0405
3799.50,0.0404
3799.00,0.0404
3798.50,0.0404
3798.00,0.0405
3797.50,0.0405
3797.00,0.0405
3796.50,0.0405
3796.00,0.0406
3795.50,0.0406
3795.00,0.0406
3794.50,0.0406
3794.00,0.0406
3793.50,0.0406
3793.00,0.0407
3792.50,0.0407
3792.00,0.0407
3791.50,0.0408
3791.00,0.0408
3790.50,0.0409
3790.00,0.0409
3789.50,0.0410
3789.00,0.0411
3788.50,0.0412
3788.00,0.0412
3787.50,0.0413
3787.00,0.0414
3786.50,0.0415
3786.00,0.0416
3785.50,0.0416
3785.00,0.0417
3784.50,0.0418
3784.00,0.0418
3783.50,0.0419
3783.00,0.0419
3782.50,0.0420
3782.00,0.0421
3781.50,0.0422
3781.00,0.0422
3780.50,0.0422
3780.00,0.0422
3779.50,0.0423
3779.00,0.0424
3778.50,0.0425
3778.00,0.0425
3777.50,0.0426
3777.00,0.0427
3776.50,0.0427
3776.00,0.0427
3775.50,0.0428
3775.00,0.0428
3774.50,0.0429
3774.00,0.0429
3773.50,0.0430
3773.00,0.0430
3772.50,0.0431
3772.00,0.0432
3771.50,0.0433
3771.00,0.0433
3770.50,0.0433
3770.00,0.0434
3769.50,0.0434
3769.00,0.0435
3768.50,0.0435
3768.00,0.0435
3767.50,0.0436
3767.00,0.0436
3766.50,0.0436
3766.00,0.0436
3765.50,0.0436
3765.00,0.0437
3764.50,0.0436
3764.00,0.0436
3763.50,0.0436
3763.00,0.0436
3762.50,0.0437
3762.00,0.0437
3761.50,0.0438
3761.00,0.0438
3760.50,0.0438
3760.00,0.0438
3759.50,0.0438
3759.00,0.0439
3758.50,0.0439
3758.00,0.0438
3757.50,0.0438
3757.00,0.0438
3756.50,0.0438
3756.00,0.0438
3755.50,0.0437
3755.00,0.0437
3754.50,0.0438
3754.00,0.0439
3753.50,0.0439
3753.00,0.0439
3752.50,0.0438
3752.00,0.0438
3751.50,0.0439
3751.00,0.0438
3750.50,0.0437
3750.00,0.0436
3749.50,0.0435
3749.00,0.0436
3748.50,0.0436
3748.00,0.0435
3747.50,0.0434
3747.00,0.0435
3746.50,0.0435
3746.00,0.0436
3745.50,0.0437
3745.00,0.0436
3744.50,0.0431
3744.00,0.0433
3743.50,0.0435
3743.00,0.0432
3742.50,0.0430
3742.00,0.0429
3741.50,0.0428
3741.00,0.0428
3740.50,0.0427
3740.00,0.0426
3739.50,0.0425
3739.00,0.0425
3738.50,0.0426
3738.00,0.0426
3737.50,0.0426
3737.00,0.0426
3736.50,0.0427
3736.00,0.0427
3735.50,0.0427
3735.00,0.0427
3734.50,0.0429
3734.00,0.0429
3733.50,0.0428
3733.00,0.0427
3732.50,0.0427
3732.00,0.0428
3731.50,0.0429
3731.00,0.0429
3730.50,0.0429
3730.00,0.0429
3729.50,0.0430
3729.00,0.0430
3728.50,0.0431
3728.00,0.0432
3727.50,0.0432
3727.00,0.0433
3726.50,0.0434
3726.00,0.0435
3725.50,0.0436
3725.00,0.0436
3724.50,0.0437
3724.00,0.0438
3723.50,0.0439
3723.00,0.0440
3722.50,0.0440
3722.00,0.0441
3721.50,0.0442
3721.00,0.0443
3720.50,0.0443
3720.00,0.0443
3719.50,0.0444
3719.00,0.0445
3718.50,0.0445
3718.00,0.0446
3717.50,0.0447
3717.00,0.0447
3716.50,0.0448
3716.00,0.0449
3715.50,0.0450
3715.00,0.0451
3714.50,0.0453
3714.00,0.0454
3713.50,0.0455
3713.00,0.0456
3712.50,0.0457
3712.00,0.0458
3711.50,0.0460
3711.00,0.0460
3710.50,0.0460
3710.00,0.0461
3709.50,0.0462
3709.00,0.0464
3708.50,0.0464
3708.00,0.0465
3707.50,0.0465
3707.00,0.0466
3706.50,0.0466
3706.00,0.0467
3705.50,0.0467
3705.00,0.0468
3704.50,0.0469
3704.00,0.0470
3703.50,0.0471
3703.00,0.0472
3702.50,0.0472
3702.00,0.0472
3701.50,0.0473
3701.00,0.0473
3700.50,0.0473
3700.00,0.0472
3699.50,0.0472
3699.00,0.0472
3698.50,0.0471
3698.00,0.0471
3697.50,0.0470
3697.00,0.0470
3696.50,0.0469
3696.00,0.0468
3695.50,0.0468
3695.00,0.0468
3694.50,0.0467
3694.00,0.0467
3693.50,0.0467
3693.00,0.0467
3692.50,0.0466
3692.00,0.0466
3691.50,0.0465
3691.00,0.0464
3690.50,0.0464
3690.00,0.0462
3689.50,0.0460
3689.00,0.0459
3688.50,0.0458
3688.00,0.0458
3687.50,0.0459
3687.00,0.0458
3686.50,0.0457
3686.00,0.0456
3685.50,0.0456
3685.00,0.0455
3684.50,0.0454
3684.00,0.0453
3683.50,0.0453
3683.00,0.0453
3682.50,0.0453
3682.00,0.0452
3681.50,0.0452
3681.00,0.0452
3680.50,0.0452
3680.00,0.0452
3679.50,0.0452
3679.00,0.0452
3678.50,0.0452
3678.00,0.0452
3677.50,0.0453
3677.00,0.0454
3676.50,0.0455
3676.00,0.0455
3675.50,0.0453
3675.00,0.0453
3674.50,0.0455
3674.00,0.0455
3673.50,0.0454
3673.00,0.0454
3672.50,0.0453
3672.00,0.0454
3671.50,0.0454
3671.00,0.0455
3670.50,0.0455
3670.00,0.0456
3669.50,0.0456
3669.00,0.0456
3668.50,0.0456
3668.00,0.0456
3667.50,0.0456
3667.00,0.0456
3666.50,0.0456
3666.00,0.0457
3665.50,0.0457
3665.00,0.0457
3664.50,0.0458
3664.00,0.0458
3663.50,0.0459
3663.00,0.0459
3662.50,0.0460
3662.00,0.0460
3661.50,0.0460
3661.00,0.0460
3660.50,0.0461
3660.00,0.0462
3659.50,0.0463
3659.00,0.0464
3658.50,0.0465
3658.00,0.0466
3657.50,0.0467
3657.00,0.0468
3656.50,0.0469
3656.00,0.0470
3655.50,0.0471
3655.00,0.0472
3654.50,0.0472
3654.00,0.0472
3653.50,0.0473
3653.00,0.0474
3652.50,0.0475
3652.00,0.0476
3651.50,0.0477
3651.00,0.0477
3650.50,0.0477
3650.00,0.0477
3649.50,0.0479
3649.00,0.0480
3648.50,0.0482
3648.00,0.0482
3647.50,0.0482
3647.00,0.0482
3646.50,0.0482
3646.00,0.0481
3645.50,0.0480
3645.00,0.0480
3644.50,0.0480
3644.00,0.0480
3643.50,0.0480
3643.00,0.0480
3642.50,0.0480
3642.00,0.0480
3641.50,0.0480
3641.00,0.0480
3640.50,0.0479
3640.00,0.0479
3639.50,0.0479
3639.00,0.0479
3638.50,0.0479
3638.00,0.0478
3637.50,0.0478
3637.00,0.0477
3636.50,0.0477
3636.00,0.0477
3635.50,0.0476
3635.00,0.0476
3634.50,0.0476
3634.00,0.0475
3633.50,0.0475
3633.00,0.0474
3632.50,0.0474
3632.00,0.0474
3631.50,0.0474
3631.00,0.0475
3630.50,0.0475
3630.00,0.0476
3629.50,0.0475
3629.00,0.0473
3628.50,0.0472
3628.00,0.0472
3627.50,0.0471
3627.00,0.0470
3626.50,0.0469
3626.00,0.0468
3625.50,0.0468
3625.00,0.0467
3624.50,0.0467
3624.00,0.0466
3623.50,0.0466
3623.00,0.0466
3622.50,0.0466
3622.00,0.0466
3621.50,0.0466
3621.00,0.0467
3620.50,0.0467
3620.00,0.0468
3619.50,0.0468
3619.00,0.0468
3618.50,0.0468
3618.00,0.0467
3617.50,0.0467
3617.00,0.0466
3616.50,0.0466
3616.00,0.0466
3615.50,0.0466
3615.00,0.0466
3614.50,0.0466
3614.00,0.0466
3613.50,0.0466
3613.00,0.0466
3612.50,0.0466
3612.00,0.0466
3611.50,0.0466
3611.00,0.0466
3610.50,0.0466
3610.00,0.0466
3609.50,0.0467
3609.00,0.0466
3608.50,0.0466
3608.00,0.0466
3607.50,0.0466
3607.00,0.0466
3606.50,0.0466
3606.00,0.0466
3605.50,0.0466
3605.00,0.0466
3604.50,0.0466
3604.00,0.0466
3603.50,0.0466
3603.00,0.0466
3602.50,0.0467
3602.00,0.0467
3601.50,0.0467
3601.00,0.0468
3600.50,0.0467
3600.00,0.0467
3599.50,0.0467
3599.00,0.0467
3598.50,0.0468
3598.00,0.0469
3597.50,0.0469
3597.00,0.0470
3596.50,0.0470
3596.00,0.0470
3595.50,0.0470
3595.00,0.0470
3594.50,0.0470
3594.00,0.0470
3593.50,0.0469
3593.00,0.0469
3592.50,0.0469
3592.00,0.0469
3591.50,0.0469
3591.00,0.0470
3590.50,0.0470
3590.00,0.0470
3589.50,0.0471
3589.00,0.0471
3588.50,0.0471
3588.00,0.0471
3587.50,0.0470
3587.00,0.0469
3586.50,0.0468
3586.00,0.0467
3585.50,0.0466
3585.00,0.0466
3584.50,0.0466
3584.00,0.0466
3583.50,0.0466
3583.00,0.0465
3582.50,0.0465
3582.00,0.0465
3581.50,0.0465
3581.00,0.0465
3580.50,0.0465
3580.00,0.0465
3579.50,0.0464
3579.00,0.0464
3578.50,0.0464
3578.00,0.0464
3577.50,0.0463
3577.00,0.0463
3576.50,0.0463
3576.00,0.0462
3575.50,0.0462
3575.00,0.0462
3574.50,0.0462
3574.00,0.0461
3573.50,0.0461
3573.00,0.0460
3572.50,0.0460
3572.00,0.0460
3571.50,0.0459
3571.00,0.0459
3570.50,0.0459
3570.00,0.0459
3569.50,0.0459
3569.00,0.0460
3568.50,0.0461
3568.00,0.0461
3567.50,0.0460
3567.00,0.0459
3566.50,0.0459
3566.00,0.0459
3565.50,0.0458
3565.00,0.0457
3564.50,0.0457
3564.00,0.0456
3563.50,0.0456
3563.00,0.0455
3562.50,0.0454
3562.00,0.0454
3561.50,0.0454
3561.00,0.0453
3560.50,0.0454
3560.00,0.0454
3559.50,0.0453
3559.00,0.0453
3558.50,0.0453
3558.00,0.0453
3557.50,0.0453
3557.00,0.0452
3556.50,0.0452
3556.00,0.0452
3555.50,0.0452
3555.00,0.0452
3554.50,0.0452
3554.00,0.0452
3553.50,0.0452
3553.00,0.0452
3552.50,0.0451
3552.00,0.0451
3551.50,0.0451
3551.00,0.0450
3550.50,0.0451
3550.00,0.0451
3549.50,0.0451
3549.00,0.0451
3548.50,0.0451
3548.00,0.0451
3547.50,0.0451
3547.00,0.0450
3546.50,0.0449
3546.00,0.0449
3545.50,0.0448
3545.00,0.0448
3544.50,0.0449
3544.00,0.0449
3543.50,0.0448
3543.00,0.0448
3542.50,0.0448
3542.00,0.0448
3541.50,0.0449
3541.00,0.0449
3540.50,0.0449
3540.00,0.0449
3539.50,0.0449
3539.00,0.0449
3538.50,0.0449
3538.00,0.0449
3537.50,0.0448
3537.00,0.0448
3536.50,0.0448
3536.00,0.0448
3535.50,0.0448
3535.00,0.0449
3534.50,0.0449
3534.00,0.0449
3533.50,0.0449
3533.00,0.0449
3532.50,0.0449
3532.00,0.0449
3531.50,0.0449
3531.00,0.0449
3530.50,0.0449
3530.00,0.0449
3529.50,0.0449
3529.00,0.0449
3528.50,0.0449
3528.00,0.0449
3527.50,0.0448
3527.00,0.0448
3526.50,0.0448
3526.00,0.0448
3525.50,0.0447
3525.00,0.0447
3524.50,0.0446
3524.00,0.0446
3523.50,0.0446
3523.00,0.0446
3522.50,0.0447
3522.00,0.0447
3521.50,0.0447
3521.00,0.0447
3520.50,0.0447
3520.00,0.0447
3519.50,0.0446
3519.00,0.0446
3518.50,0.0446
3518.00,0.0446
3517.50,0.0446
3517.00,0.0446
3516.50,0.0445
3516.00,0.0445
3515.50,0.0445
3515.00,0.0444
3514.50,0.0444
3514.00,0.0443
3513.50,0.0443
3513.00,0.0444
3512.50,0.0444
3512.00,0.0444
3511.50,0.0444
3511.00,0.0444
3510.50,0.0444
3510.00,0.0444
3509.50,0.0444
3509.00,0.0444
3508.50,0.0444
3508.00,0.0443
3507.50,0.0443
3507.00,0.0443
3506.50,0.0443
3506.00,0.0443
3505.50,0.0442
3505.00,0.0442
3504.50,0.0442
3504.00,0.0441
3503.50,0.0441
3503.00,0.0440
3502.50,0.0440
3502.00,0.0440
3501.50,0.0440
3501.00,0.0441
3500.50,0.0441
3500.00,0.0440
3499.50,0.0440
3499.00,0.0439
3498.50,0.0439
3498.00,0.0439
3497.50,0.0439
3497.00,0.0439
3496.50,0.0439
3496.00,0.0439
3495.50,0.0439
3495.00,0.0438
3494.50,0.0438
3494.00,0.0438
3493.50,0.0438
3493.00,0.0438
3492.50,0.0438
3492.00,0.0438
3491.50,0.0438
3491.00,0.0437
3490.50,0.0437
3490.00,0.0437
3489.50,0.0437
3489.00,0.0437
3488.50,0.0436
3488.00,0.0436
3487.50,0.0435
3487.00,0.0435
3486.50,0.0435
3486.00,0.0435
3485.50,0.0436
3485.00,0.0436
3484.50,0.0436
3484.00,0.0436
3483.50,0.0436
3483.00,0.0436
3482.50,0.0435
3482.00,0.0435
3481.50,0.0434
3481.00,0.0434
3480.50,0.0433
3480.00,0.0433
3479.50,0.0432
3479.00,0.0433
3478.50,0.0433
3478.00,0.0433
3477.50,0.0433
3477.00,0.0433
3476.50,0.0433
3476.00,0.0433
3475.50,0.0432
3475.00,0.0432
3474.50,0.0432
3474.00,0.0432
3473.50,0.0432
3473.00,0.0432
3472.50,0.0432
3472.00,0.0431
3471.50,0.0431
3471.00,0.0430
3470.50,0.0429
3470.00,0.0429
3469.50,0.0428
3469.00,0.0428
3468.50,0.0428
3468.00,0.0428
3467.50,0.0428
3467.00,0.0428
3466.50,0.0428
3466.00,0.0428
3465.50,0.0428
3465.00,0.0428
3464.50,0.0428
3464.00,0.0428
3463.50,0.0428
3463.00,0.0428
3462.50,0.0428
3462.00,0.0428
3461.50,0.0427
3461.00,0.0426
3460.50,0.0426
3460.00,0.0426
3459.50,0.0426
3459.00,0.0426
3458.50,0.0427
3458.00,0.0427
3457.50,0.0427
3457.00,0.0426
3456.50,0.0426
3456.00,0.0426
3455.50,0.0426
3455.00,0.0426
3454.50,0.0425
3454.00,0.0425
3453.50,0.0425
3453.00,0.0425
3452.50,0.0425
3452.00,0.0425
3451.50,0.0424
3451.00,0.0424
3450.50,0.0424
3450.00,0.0424
3449.50,0.0424
3449.00,0.0424
3448.50,0.0423
3448.00,0.0423
3447.50,0.0423
3447.00,0.0423
3446.50,0.0422
3446.00,0.0422
3445.50,0.0422
3445.00,0.0422
3444.50,0.0422
3444.00,0.0422
3443.50,0.0422
3443.00,0.0421
3442.50,0.0421
3442.00,0.0421
3441.50,0.0421
3441.00,0.0421
3440.50,0.0420
3440.00,0.0420
3439.50,0.0420
3439.00,0.0419
3438.50,0.0418
3438.00,0.0417
3437.50,0.0417
3437.00,0.0417
3436.50,0.0417
3436.00,0.0416
3435.50,0.0416
3435.00,0.0416
3434.50,0.0416
3434.00,0.0417
3433.50,0.0417
3433.00,0.0417
3432.50,0.0417
3432.00,0.0416
3431.50,0.0416
3431.00,0.0415
3430.50,0.0415
3430.00,0.0415
3429.50,0.0415
3429.00,0.0415
3428.50,0.0415
3428.00,0.0415
3427.50,0.0416
3427.00,0.0416
3426.50,0.0416
3426.00,0.0416
3425.50,0.0415
3425.00,0.0415
3424.50,0.0415
3424.00,0.0415
3423.50,0.0415
3423.00,0.0415
3422.50,0.0415
3422.00,0.0415
3421.50,0.0414
3421.00,0.0414
3420.50,0.0414
3420.00,0.0414
3419.50,0.0414
3419.00,0.0414
3418.50,0.0414
3418.00,0.0414
3417.50,0.0414
3417.00,0.0413
3416.50,0.0413
3416.00,0.0413
3415.50,0.0413
3415.00,0.0412
3414.50,0.0412
3414.00,0.0411
3413.50,0.0411
3413.00,0.0411
3412.50,0.0411
3412.00,0.0411
3411.50,0.0411
3411.00,0.0411
3410.50,0.0411
3410.00,0.0410
3409.50,0.0410
3409.00,0.0410
3408.50,0.0410
3408.00,0.0410
3407.50,0.0411
3407.00,0.0411
3406.50,0.0410
3406.00,0.0410
3405.50,0.0410
3405.00,0.0410
3404.50,0.0410
3404.00,0.0409
3403.50,0.0409
3403.00,0.0408
3402.50,0.0408
3402.00,0.0407
3401.50,0.0407
3401.00,0.0407
3400.50,0.0407
3400.00,0.0407
3399.50,0.0407
3399.00,0.0407
3398.50,0.0408
3398.00,0.0408
3397.50,0.0408
3397.00,0.0408
3396.50,0.0408
3396.00,0.0408
3395.50,0.0408
3395.00,0.0407
3394.50,0.0407
3394.00,0.0407
3393.50,0.0407
3393.00,0.0406
3392.50,0.0406
3392.00,0.0406
3391.50,0.0405
3391.00,0.0406
3390.50,0.0406
3390.00,0.0407
3389.50,0.0407
3389.00,0.0407
3388.50,0.0407
3388.00,0.0408
3387.50,0.0408
3387.00,0.0408
3386.50,0.0407
3386.00,0.0407
3385.50,0.0407
3385.00,0.0407
3384.50,0.0407
3384.00,0.0407
3383.50,0.0407
3383.00,0.0407
3382.50,0.0406
3382.00,0.0406
3381.50,0.0406
3381.00,0.0406
3380.50,0.0405
3380.00,0.0406
3379.50,0.0406
3379.00,0.0406
3378.50,0.0406
3378.00,0.0406
3377.50,0.0405
3377.00,0.0405
3376.50,0.0405
3376.00,0.0405
3375.50,0.0405
3375.00,0.0406
3374.50,0.0406
3374.00,0.0406
3373.50,0.0405
3373.00,0.0405
3372.50,0.0405
3372.00,0.0404
3371.50,0.0404
3371.00,0.0404
3370.50,0.0403
3370.00,0.0403
3369.50,0.0403
3369.00,0.0403
3368.50,0.0403
3368.00,0.0403
3367.50,0.0403
3367.00,0.0403
3366.50,0.0404
3366.00,0.0404
3365.50,0.0404
3365.00,0.0405
3364.50,0.0405
3364.00,0.0405
3363.50,0.0405
3363.00,0.0405
3362.50,0.0405
3362.00,0.0405
3361.50,0.0404
3361.00,0.0404
3360.50,0.0404
3360.00,0.0404
3359.50,0.0405
3359.00,0.0405
3358.50,0.0405
3358.00,0.0405
3357.50,0.0405
3357.00,0.0405
3356.50,0.0405
3356.00,0.0405
3355.50,0.0405
3355.00,0.0405
3354.50,0.0405
3354.00,0.0405
3353.50,0.0405
3353.00,0.0404
3352.50,0.0404
3352.00,0.0403
3351.50,0.0403
3351.00,0.0403
3350.50,0.0403
3350.00,0.0403
3349.50,0.0404
3349.00,0.0404
3348.50,0.0404
3348.00,0.0404
3347.50,0.0405
3347.00,0.0404
3346.50,0.0404
3346.00,0.0404
3345.50,0.0404
3345.00,0.0404
3344.50,0.0403
3344.00,0.0403
3343.50,0.0403
3343.00,0.0403
3342.50,0.0403
3342.00,0.0403
3341.50,0.0403
3341.00,0.0403
3340.50,0.0403
3340.00,0.0403
3339.50,0.0402
3339.00,0.0402
3338.50,0.0402
3338.00,0.0402
3337.50,0.0402
3337.00,0.0402
3336.50,0.0403
3336.00,0.0403
3335.50,0.0403
3335.00,0.0404
3334.50,0.0404
3334.00,0.0404
3333.50,0.0404
3333.00,0.0404
3332.50,0.0404
3332.00,0.0403
3331.50,0.0403
3331.00,0.0403
3330.50,0.0403
3330.00,0.0403
3329.50,0.0403
3329.00,0.0403
3328.50,0.0403
3328.00,0.0402
3327.50,0.0402
3327.00,0.0402
3326.50,0.0401
3326.00,0.0401
3325.50,0.0401
3325.00,0.0401
3324.50,0.0401
3324.00,0.0402
3323.50,0.0402
3323.00,0.0402
3322.50,0.0402
3322.00,0.0402
3321.50,0.0402
3321.00,0.0402
3320.50,0.0402
3320.00,0.0402
3319.50,0.0402
3319.00,0.0402
3318.50,0.0402
3318.00,0.0402
3317.50,0.0402
3317.00,0.0402
3316.50,0.0401
3316.00,0.0401
3315.50,0.0401
3315.00,0.0401
3314.50,0.0401
3314.00,0.0401
3313.50,0.0401
3313.00,0.0401
3312.50,0.0401
3312.00,0.0401
3311.50,0.0401
3311.00,0.0400
3310.50,0.0400
3310.00,0.0399
3309.50,0.0399
3309.00,0.0399
3308.50,0.0398
3308.00,0.0398
3307.50,0.0398
3307.00,0.0398
3306.50,0.0398
3306.00,0.0398
3305.50,0.0398
3305.00,0.0398
3304.50,0.0398
3304.00,0.0399
3303.50,0.0399
3303.00,0.0400
3302.50,0.0400
3302.00,0.0400
3301.50,0.0400
3301.00,0.0400
3300.50,0.0400
3300.00,0.0400
3299.50,0.0400
3299.00,0.0400
3298.50,0.0400
3298.00,0.0399
3297.50,0.0399
3297.00,0.0399
3296.50,0.0398
3296.00,0.0398
3295.50,0.0398
3295.00,0.0398
3294.50,0.0398
3294.00,0.0399
3293.50,0.0398
3293.00,0.0398
3292.50,0.0398
3292.00,0.0398
3291.50,0.0398
3291.00,0.0398
3290.50,0.0399
3290.00,0.0399
3289.50,0.0400
3289.00,0.0400
3288.50,0.0400
3288.00,0.0400
3287.50,0.0400
3287.00,0.0400
3286.50,0.0400
3286.00,0.0400
3285.50,0.0400
3285.00,0.0400
3284.50,0.0400
3284.00,0.0400
3283.50,0.0400
3283.00,0.0400
3282.50,0.0400
3282.00,0.0400
3281.50,0.0400
3281.00,0.0400
3280.50,0.0400
3280.00,0.0400
3279.50,0.0400
3279.00,0.0400
3278.50,0.0400
3278.00,0.0400
3277.50,0.0399
3277.00,0.0399
3276.50,0.0399
3276.00,0.0399
3275.50,0.0398
3275.00,0.0398
3274.50,0.0398
3274.00,0.0399
3273.50,0.0399
3273.00,0.0398
3272.50,0.0398
3272.00,0.0397
3271.50,0.0397
3271.00,0.0397
3270.50,0.0397
3270.00,0.0398
3269.50,0.0398
3269.00,0.0399
3268.50,0.0399
3268.00,0.0399
3267.50,0.0399
3267.00,0.0400
3266.50,0.0400
3266.00,0.0400
3265.50,0.0400
3265.00,0.0400
3264.50,0.0400
3264.00,0.0400
3263.50,0.0400
3263.00,0.0400
3262.50,0.0400
3262.00,0.0400
3261.50,0.0400
3261.00,0.0400
3260.50,0.0400
3260.00,0.0400
3259.50,0.0400
3259.00,0.0400
3258.50,0.0400
3258.00,0.0400
3257.50,0.0400
3257.00,0.0399
3256.50,0.0399
3256.00,0.0399
3255.50,0.0399
3255.00,0.0399
3254.50,0.0400
3254.00,0.0400
3253.50,0.0400
3253.00,0.0400
3252.50,0.0400
3252.00,0.0400
3251.50,0.0400
3251.00,0.0400
3250.50,0.0400
3250.00,0.0400
3249.50,0.0400
3249.00,0.0400
3248.50,0.0400
3248.00,0.0399
3247.50,0.0399
3247.00,0.0399
3246.50,0.0399
3246.00,0.0400
3245.50,0.0400
3245.00,0.0400
3244.50,0.0401
3244.00,0.0401
3243.50,0.0401
3243.00,0.0401
3242.50,0.0401
3242.00,0.0401
3241.50,0.0401
3241.00,0.0401
3240.50,0.0401
3240.00,0.0401
3239.50,0.0401
3239.00,0.0402
3238.50,0.0402
3238.00,0.0402
3237.50,0.0401
3237.00,0.0401
3236.50,0.0401
3236.00,0.0401
3235.50,0.0401
3235.00,0.0400
3234.50,0.0400
3234.00,0.0400
3233.50,0.0400
3233.00,0.0400
3232.50,0.0400
3232.00,0.0401
3231.50,0.0401
3231.00,0.0402
3230.50,0.0402
3230.00,0.0402
3229.50,0.0402
3229.00,0.0402
3228.50,0.0402
3228.00,0.0403
3227.50,0.0403
3227.00,0.0403
3226.50,0.0403
3226.00,0.0403
3225.50,0.0403
3225.00,0.0403
3224.50,0.0403
3224.00,0.0403
3223.50,0.0403
3223.00,0.0403
3222.50,0.0403
3222.00,0.0403
3221.50,0.0403
3221.00,0.0403
3220.50,0.0403
3220.00,0.0403
3219.50,0.0403
3219.00,0.0403
3218.50,0.0403
3218.00,0.0404
3217.50,0.0404
3217.00,0.0404
3216.50,0.0404
3216.00,0.0404
3215.50,0.0404
3215.00,0.0404
3214.50,0.0404
3214.00,0.0404
3213.50,0.0404
3213.00,0.0404
3212.50,0.0405
3212.00,0.0405
3211.50,0.0405
3211.00,0.0405
3210.50,0.0405
3210.00,0.0405
3209.50,0.0405
3209.00,0.0405
3208.50,0.0405
3208.00,0.0405
3207.50,0.0405
3207.00,0.0405
3206.50,0.0405
3206.00,0.0406
3205.50,0.0406
3205.00,0.0406
3204.50,0.0406
3204.00,0.0406
3203.50,0.0406
3203.00,0.0406
3202.50,0.0406
3202.00,0.0407
3201.50,0.0407
3201.00,0.0407
3200.50,0.0407
3200.00,0.0407
3199.50,0.0407
3199.00,0.0408
3198.50,0.0408
3198.00,0.0408
3197.50,0.0408
3197.00,0.0408
3196.50,0.0408
3196.00,0.0409
3195.50,0.0409
3195.00,0.0409
3194.50,0.0409
3194.00,0.0409
3193.50,0.0409
3193.00,0.0410
3192.50,0.0410
3192.00,0.0410
3191.50,0.0410
3191.00,0.0411
3190.50,0.0411
3190.00,0.0411
3189.50,0.0411
3189.00,0.0411
3188.50,0.0411
3188.00,0.0412
3187.50,0.0412
3187.00,0.0412
3186.50,0.0413
3186.00,0.0413
3185.50,0.0413
3185.00,0.0413
3184.50,0.0413
3184.00,0.0413
3183.50,0.0413
3183.00,0.0413
3182.50,0.0413
3182.00,0.0413
3181.50,0.0413
3181.00,0.0413
3180.50,0.0413
3180.00,0.0413
3179.50,0.0413
3179.00,0.0413
3178.50,0.0413
3178.00,0.0413
3177.50,0.0413
3177.00,0.0413
3176.50,0.0413
3176.00,0.0413
3175.50,0.0413
3175.00,0.0413
3174.50,0.0413
3174.00,0.0413
3173.50,0.0413
3173.00,0.0413
3172.50,0.0414
3172.00,0.0414
3171.50,0.0414
3171.00,0.0414
3170.50,0.0414
3170.00,0.0414
3169.50,0.0414
3169.00,0.0415
3168.50,0.0415
3168.00,0.0415
3167.50,0.0415
3167.00,0.0415
3166.50,0.0415
3166.00,0.0416
3165.50,0.0416
3165.00,0.0416
3164.50,0.0416
3164.00,0.0417
3163.50,0.0417
3163.00,0.0417
3162.50,0.0417
3162.00,0.0417
3161.50,0.0418
3161.00,0.0418
3160.50,0.0418
3160.00,0.0419
3159.50,0.0419
3159.00,0.0419
3158.50,0.0419
3158.00,0.0419
3157.50,0.0420
3157.00,0.0420
3156.50,0.0420
3156.00,0.0420
3155.50,0.0420
3155.00,0.0420
3154.50,0.0420
3154.00,0.0420
3153.50,0.0420
3153.00,0.0420
3152.50,0.0420
3152.00,0.0421
3151.50,0.0422
3151.00,0.0423
3150.50,0.0423
3150.00,0.0424
3149.50,0.0424
3149.00,0.0425
3148.50,0.0425
3148.00,0.0426
3147.50,0.0426
3147.00,0.0427
3146.50,0.0427
3146.00,0.0427
3145.50,0.0428
3145.00,0.0428
3144.50,0.0429
3144.00,0.0429
3143.50,0.0430
3143.00,0.0430
3142.50,0.0430
3142.00,0.0431
3141.50,0.0431
3141.00,0.0431
3140.50,0.0431
3140.00,0.0431
3139.50,0.0431
3139.00,0.0432
3138.50,0.0433
3138.00,0.0434
3137.50,0.0435
3137.00,0.0436
3136.50,0.0437
3136.00,0.0438
3135.50,0.0438
3135.00,0.0439
3134.50,0.0440
3134.00,0.0440
3133.50,0.0441
3133.00,0.0442
3132.50,0.0442
3132.00,0.0443
3131.50,0.0443
3131.00,0.0443
3130.50,0.0443
3130.00,0.0444
3129.50,0.0445
3129.00,0.0446
3128.50,0.0447
3128.00,0.0448
3127.50,0.0448
3127.00,0.0449
3126.50,0.0450
3126.00,0.0450
3125.50,0.0451
3125.00,0.0452
3124.50,0.0452
3124.00,0.0453
3123.50,0.0453
3123.00,0.0454
3122.50,0.0454
3122.00,0.0454
3121.50,0.0454
3121.00,0.0454
3120.50,0.0454
3120.00,0.0455
3119.50,0.0455
3119.00,0.0456
3118.50,0.0456
3118.00,0.0457
3117.50,0.0457
3117.00,0.0457
3116.50,0.0458
3116.00,0.0458
3115.50,0.0459
3115.00,0.0460
3114.50,0.0460
3114.00,0.0461
3113.50,0.0462
3113.00,0.0463
3112.50,0.0463
3112.00,0.0463
3111.50,0.0463
3111.00,0.0463
3110.50,0.0463
3110.00,0.0463
3109.50,0.0463
3109.00,0.0463
3108.50,0.0463
3108.00,0.0464
3107.50,0.0464
3107.00,0.0465
3106.50,0.0465
3106.00,0.0466
3105.50,0.0466
3105.00,0.0466
3104.50,0.0466
3104.00,0.0466
3103.50,0.0466
3103.00,0.0466
3102.50,0.0466
3102.00,0.0466
3101.50,0.0465
3101.00,0.0465
3100.50,0.0465
3100.00,0.0465
3099.50,0.0466
3099.00,0.0466
3098.50,0.0466
3098.00,0.0466
3097.50,0.0467
3097.00,0.0467
3096.50,0.0467
3096.00,0.0467
3095.50,0.0467
3095.00,0.0467
3094.50,0.0467
3094.00,0.0467
3093.50,0.0467
3093.00,0.0467
3092.50,0.0466
3092.00,0.0466
3091.50,0.0466
3091.00,0.0465
3090.50,0.0465
3090.00,0.0465
3089.50,0.0466
3089.00,0.0466
3088.50,0.0467
3088.00,0.0467
3087.50,0.0467
3087.00,0.0467
3086.50,0.0467
3086.00,0.0467
3085.50,0.0467
3085.00,0.0467
3084.50,0.0467
3084.00,0.0467
3083.50,0.0468
3083.00,0.0468
3082.50,0.0468
3082.00,0.0468
3081.50,0.0468
3081.00,0.0468
3080.50,0.0469
3080.00,0.0469
3079.50,0.0469
3079.00,0.0470
3078.50,0.0470
3078.00,0.0470
3077.50,0.0471
3077.00,0.0472
3076.50,0.0473
3076.00,0.0474
3075.50,0.0475
3075.00,0.0475
3074.50,0.0476
3074.00,0.0476
3073.50,0.0477
3073.00,0.0477
3072.50,0.0478
3072.00,0.0478
3071.50,0.0479
3071.00,0.0480
3070.50,0.0480
3070.00,0.0481
3069.50,0.0481
3069.00,0.0482
3068.50,0.0482
3068.00,0.0482
3067.50,0.0483
3067.00,0.0484
3066.50,0.0485
3066.00,0.0487
3065.50,0.0488
3065.00,0.0490
3064.50,0.0491
3064.00,0.0492
3063.50,0.0494
3063.00,0.0495
3062.50,0.0497
3062.00,0.0499
3061.50,0.0501
3061.00,0.0503
3060.50,0.0505
3060.00,0.0506
3059.50,0.0508
3059.00,0.0510
3058.50,0.0512
3058.00,0.0514
3057.50,0.0516
3057.00,0.0518
3056.50,0.0520
3056.00,0.0521
3055.50,0.0523
3055.00,0.0524
3054.50,0.0525
3054.00,0.0527
3053.50,0.0528
3053.00,0.0528
3052.50,0.0528
3052.00,0.0527
3051.50,0.0526
3051.00,0.0524
3050.50,0.0523
3050.00,0.0522
3049.50,0.0520
3049.00,0.0519
3048.50,0.0517
3048.00,0.0514
3047.50,0.0512
3047.00,0.0509
3046.50,0.0507
3046.00,0.0504
3045.50,0.0502
3045.00,0.0501
3044.50,0.0500
3044.00,0.0498
3043.50,0.0497
3043.00,0.0496
3042.50,0.0495
3042.00,0.0494
3041.50,0.0494
3041.00,0.0493
3040.50,0.0493
3040.00,0.0493
3039.50,0.0493
3039.00,0.0493
3038.50,0.0493
3038.00,0.0493
3037.50,0.0493
3037.00,0.0492
3036.50,0.0492
3036.00,0.0491
3035.50,0.0490
3035.00,0.0490
3034.50,0.0490
3034.00,0.0490
3033.50,0.0490
3033.00,0.0491
3032.50,0.0491
3032.00,0.0492
3031.50,0.0492
3031.00,0.0492
3030.50,0.0493
3030.00,0.0493
3029.50,0.0494
3029.00,0.0495
3028.50,0.0496
3028.00,0.0496
3027.50,0.0497
3027.00,0.0498
3026.50,0.0498
3026.00,0.0498
3025.50,0.0499
3025.00,0.0500
3024.50,0.0501
3024.00,0.0502
3023.50,0.0504
3023.00,0.0505
3022.50,0.0507
3022.00,0.0508
3021.50,0.0509
3021.00,0.0511
3020.50,0.0512
3020.00,0.0513
3019.50,0.0515
3019.00,0.0517
3018.50,0.0518
3018.00,0.0520
3017.50,0.0521
3017.00,0.0522
3016.50,0.0523
3016.00,0.0525
3015.50,0.0526
3015.00,0.0527
3014.50,0.0528
3014.00,0.0529
3013.50,0.0530
3013.00,0.0531
3012.50,0.0532
3012.00,0.0533
3011.50,0.0534
3011.00,0.0536
3010.50,0.0537
3010.00,0.0539
3009.50,0.0541
3009.00,0.0543
3008.50,0.0545
3008.00,0.0547
3007.50,0.0549
3007.00,0.0551
3006.50,0.0553
3006.00,0.0555
3005.50,0.0558
3005.00,0.0560
3004.50,0.0563
3004.00,0.0566
3003.50,0.0569
3003.00,0.0572
3002.50,0.0576
3002.00,0.0580
3001.50,0.0584
3001.00,0.0588
3000.50,0.0592
3000.00,0.0596
2999.50,0.0600
2999.00,0.0605
2998.50,0.0610
2998.00,0.0615
2997.50,0.0621
2997.00,0.0627
2996.50,0.0634
2996.00,0.0641
2995.50,0.0648
2995.00,0.0655
2994.50,0.0663
2994.00,0.0671
2993.50,0.0679
2993.00,0.0688
2992.50,0.0698
2992.00,0.0709
2991.50,0.0720
2991.00,0.0732
2990.50,0.0744
2990.00,0.0757
2989.50,0.0771
2989.00,0.0786
2988.50,0.0801
2988.00,0.0818
2987.50,0.0836
2987.00,0.0854
2986.50,0.0874
2986.00,0.0896
2985.50,0.0918
2985.00,0.0942
2984.50,0.0968
2984.00,0.0996
2983.50,0.1025
2983.00,0.1056
2982.50,0.1089
2982.00,0.1125
2981.50,0.1164
2981.00,0.1205
2980.50,0.1250
2980.00,0.1298
2979.50,0.1349
2979.00,0.1404
2978.50,0.1464
2978.00,0.1529
2977.50,0.1598
2977.00,0.1673
2976.50,0.1752
2976.00,0.1837
2975.50,0.1928
2975.00,0.2025
2974.50,0.2130
2974.00,0.2241
2973.50,0.2360
2973.00,0.2486
2972.50,0.2619
2972.00,0.2760
2971.50,0.2906
2971.00,0.3060
2970.50,0.3219
2970.00,0.3383
2969.50,0.3551
2969.00,0.3722
2968.50,0.3894
2968.00,0.4065
2967.50,0.4232
2967.00,0.4393
2966.50,0.4546
2966.00,0.4687
2965.50,0.4813
2965.00,0.4919
2964.50,0.5005
2964.00,0.5067
2963.50,0.5102
2963.00,0.5109
2962.50,0.5089
2962.00,0.5041
2961.50,0.4967
2961.00,0.4867
2960.50,0.4744
2960.00,0.4603
2959.50,0.4447
2959.00,0.4278
2958.50,0.4101
2958.00,0.3919
2957.50,0.3736
2957.00,0.3554
2956.50,0.3376
2956.00,0.3204
2955.50,0.3038
2955.00,0.2880
2954.50,0.2730
2954.00,0.2589
2953.50,0.2456
2953.00,0.2333
2952.50,0.2220
2952.00,0.2115
2951.50,0.2018
2951.00,0.1928
2950.50,0.1845
2950.00,0.1768
2949.50,0.1695
2949.00,0.1628
2948.50,0.1565
2948.00,0.1506
2947.50,0.1452
2947.00,0.1402
2946.50,0.1355
2946.00,0.1312
2945.50,0.1271
2945.00,0.1233
2944.50,0.1197
2944.00,0.1164
2943.50,0.1133
2943.00,0.1105
2942.50,0.1079
2942.00,0.1055
2941.50,0.1032
2941.00,0.1011
2940.50,0.0990
2940.00,0.0971
2939.50,0.0953
2939.00,0.0936
2938.50,0.0920
2938.00,0.0906
2937.50,0.0892
2937.00,0.0878
2936.50,0.0866
2936.00,0.0854
2935.50,0.0843
2935.00,0.0832
2934.50,0.0823
2934.00,0.0813
2933.50,0.0805
2933.00,0.0797
2932.50,0.0789
2932.00,0.0781
2931.50,0.0774
2931.00,0.0768
2930.50,0.0761
2930.00,0.0756
2929.50,0.0751
2929.00,0.0747
2928.50,0.0743
2928.00,0.0740
2927.50,0.0737
2927.00,0.0734
2926.50,0.0732
2926.00,0.0729
2925.50,0.0728
2925.00,0.0726
2924.50,0.0725
2924.00,0.0725
2923.50,0.0724
2923.00,0.0725
2922.50,0.0725
2922.00,0.0726
2921.50,0.0728
2921.00,0.0730
2920.50,0.0732
2920.00,0.0735
2919.50,0.0738
2919.00,0.0741
2918.50,0.0746
2918.00,0.0751
2917.50,0.0757
2917.00,0.0764
2916.50,0.0772
2916.00,0.0780
2915.50,0.0790
2915.00,0.0800
2914.50,0.0811
2914.00,0.0823
2913.50,0.0837
2913.00,0.0851
2912.50,0.0867
2912.00,0.0883
2911.50,0.0900
2911.00,0.0917
2910.50,0.0935
2910.00,0.0953
2909.50,0.0970
2909.00,0.0988
2908.50,0.1004
2908.00,0.1020
2907.50,0.1034
2907.00,0.1047
2906.50,0.1057
2906.00,0.1065
2905.50,0.1070
2905.00,0.1073
2904.50,0.1073
2904.00,0.1070
2903.50,0.1065
2903.00,0.1058
2902.50,0.1048
2902.00,0.1036
2901.50,0.1023
2901.00,0.1008
2900.50,0.0991
2900.00,0.0975
2899.50,0.0957
2899.00,0.0939
2898.50,0.0921
2898.00,0.0903
2897.50,0.0885
2897.00,0.0867
2896.50,0.0850
2896.00,0.0833
2895.50,0.0817
2895.00,0.0802
2894.50,0.0788
2894.00,0.0775
2893.50,0.0762
2893.00,0.0749
2892.50,0.0738
2892.00,0.0726
2891.50,0.0716
2891.00,0.0706
2890.50,0.0697
2890.00,0.0688
2889.50,0.0679
2889.00,0.0671
2888.50,0.0664
2888.00,0.0657
2887.50,0.0650
2887.00,0.0643
2886.50,0.0637
2886.00,0.0631
2885.50,0.0626
2885.00,0.0620
2884.50,0.0615
2884.00,0.0611
2883.50,0.0606
2883.00,0.0602
2882.50,0.0598
2882.00,0.0594
2881.50,0.0590
2881.00,0.0586
2880.50,0.0583
2880.00,0.0579
2879.50,0.0576
2879.00,0.0573
2878.50,0.0570
2878.00,0.0567
2877.50,0.0564
2877.00,0.0561
2876.50,0.0558
2876.00,0.0556
2875.50,0.0553
2875.00,0.0550
2874.50,0.0547
2874.00,0.0544
2873.50,0.0542
2873.00,0.0540
2872.50,0.0538
2872.00,0.0536
2871.50,0.0535
2871.00,0.0533
2870.50,0.0531
2870.00,0.0529
2869.50,0.0528
2869.00,0.0526
2868.50,0.0524
2868.00,0.0523
2867.50,0.0521
2867.00,0.0520
2866.50,0.0518
2866.00,0.0517
2865.50,0.0516
2865.00,0.0515
2864.50,0.0514
2864.00,0.0512
2863.50,0.0511
2863.00,0.0510
2862.50,0.0509
2862.00,0.0508
2861.50,0.0507
2861.00,0.0506
2860.50,0.0505
2860.00,0.0504
2859.50,0.0504
2859.00,0.0504
2858.50,0.0503
2858.00,0.0503
2857.50,0.0503
2857.00,0.0502
2856.50,0.0502
2856.00,0.0502
2855.50,0.0501
2855.00,0.0501
2854.50,0.0501
2854.00,0.0500
2853.50,0.0500
2853.00,0.0500
2852.50,0.0499
2852.00,0.0499
2851.50,0.0499
2851.00,0.0498
2850.50,0.0498
2850.00,0.0498
2849.50,0.0497
2849.00,0.0496
2848.50,0.0496
2848.00,0.0495
2847.50,0.0495
2847.00,0.0495
2846.50,0.0494
2846.00,0.0494
2845.50,0.0493
2845.00,0.0493
2844.50,0.0492
2844.00,0.0492
2843.50,0.0491
2843.00,0.0491
2842.50,0.0491
2842.00,0.0490
2841.50,0.0490
2841.00,0.0489
2840.50,0.0488
2840.00,0.0488
2839.50,0.0487
2839.00,0.0486
2838.50,0.0486
2838.00,0.0485
2837.50,0.0485
2837.00,0.0485
2836.50,0.0485
2836.00,0.0484
2835.50,0.0483
2835.00,0.0483
2834.50,0.0482
2834.00,0.0482
2833.50,0.0481
2833.00,0.0481
2832.50,0.0480
2832.00,0.0479
2831.50,0.0479
2831.00,0.0478
2830.50,0.0478
2830.00,0.0477
2829.50,0.0477
2829.00,0.0477
2828.50,0.0476
2828.00,0.0476
2827.50,0.0476
2827.00,0.0475
2826.50,0.0475
2826.00,0.0475
2825.50,0.0475
2825.00,0.0475
2824.50,0.0475
2824.00,0.0475
2823.50,0.0475
2823.00,0.0475
2822.50,0.0475
2822.00,0.0475
2821.50,0.0475
2821.00,0.0475
2820.50,0.0476
2820.00,0.0476
2819.50,0.0476
2819.00,0.0477
2818.50,0.0477
2818.00,0.0477
2817.50,0.0477
2817.00,0.0478
2816.50,0.0478
2816.00,0.0478
2815.50,0.0478
2815.00,0.0479
2814.50,0.0479
2814.00,0.0479
2813.50,0.0479
2813.00,0.0479
2812.50,0.0479
2812.00,0.0479
2811.50,0.0479
2811.00,0.0479
2810.50,0.0478
2810.00,0.0478
2809.50,0.0478
2809.00,0.0479
2808.50,0.0479
2808.00,0.0479
2807.50,0.0479
2807.00,0.0478
2806.50,0.0478
2806.00,0.0478
2805.50,0.0478
2805.00,0.0477
2804.50,0.0477
2804.00,0.0477
2803.50,0.0477
2803.00,0.0477
2802.50,0.0476
2802.00,0.0476
2801.50,0.0476
2801.00,0.0476
2800.50,0.0475
2800.00,0.0475
2799.50,0.0474
2799.00,0.0474
2798.50,0.0473
2798.00,0.0473
2797.50,0.0473
2797.00,0.0473
2796.50,0.0472
2796.00,0.0472
2795.50,0.0471
2795.00,0.0471
2794.50,0.0470
2794.00,0.0470
2793.50,0.0469
2793.00,0.0468
2792.50,0.0466
2792.00,0.0465
2791.50,0.0464
2791.00,0.0462
2790.50,0.0461
2790.00,0.0459
2789.50,0.0457
2789.00,0.0456
2788.50,0.0454
2788.00,0.0453
2787.50,0.0451
2787.00,0.0449
2786.50,0.0447
2786.00,0.0445
2785.50,0.0443
2785.00,0.0441
2784.50,0.0439
2784.00,0.0438
2783.50,0.0436
2783.00,0.0434
2782.50,0.0432
2782.00,0.0430
2781.50,0.0428
2781.00,0.0426
2780.50,0.0425
2780.00,0.0423
2779.50,0.0421
2779.00,0.0420
2778.50,0.0418
2778.00,0.0417
2777.50,0.0415
2777.00,0.0414
2776.50,0.0412
2776.00,0.0411
2775.50,0.0409
2775.00,0.0408
2774.50,0.0407
2774.00,0.0406
2773.50,0.0405
2773.00,0.0404
2772.50,0.0403
2772.00,0.0403
2771.50,0.0402
2771.00,0.0401
2770.50,0.0400
2770.00,0.0399
2769.50,0.0398
2769.00,0.0398
2768.50,0.0397
2768.00,0.0396
2767.50,0.0395
2767.00,0.0395
2766.50,0.0394
2766.00,0.0394
2765.50,0.0393
2765.00,0.0392
2764.50,0.0392
2764.00,0.0391
2763.50,0.0391
2763.00,0.0390
2762.50,0.0390
2762.00,0.0389
2761.50,0.0389
2761.00,0.0388
2760.50,0.0388
2760.00,0.0387
2759.50,0.0387
2759.00,0.0387
2758.50,0.0386
2758.00,0.0386
2757.50,0.0386
2757.00,0.0385
2756.50,0.0385
2756.00,0.0384
2755.50,0.0384
2755.00,0.0384
2754.50,0.0384
2754.00,0.0383
2753.50,0.0383
2753.00,0.0383
2752.50,0.0382
2752.00,0.0382
2751.50,0.0381
2751.00,0.0381
2750.50,0.0380
2750.00,0.0380
2749.50,0.0380
2749.00,0.0380
2748.50,0.0379
2748.00,0.0379
2747.50,0.0379
2747.00,0.0379
2746.50,0.0379
2746.00,0.0379
2745.50,0.0378
2745.00,0.0378
2744.50,0.0378
2744.00,0.0378
2743.50,0.0377
2743.00,0.0377
2742.50,0.0377
2742.00,0.0377
2741.50,0.0377
2741.00,0.0376
2740.50,0.0376
2740.00,0.0376
2739.50,0.0376
2739.00,0.0376
2738.50,0.0375
2738.00,0.0375
2737.50,0.0375
2737.00,0.0375
2736.50,0.0375
2736.00,0.0375
2735.50,0.0375
2735.00,0.0375
2734.50,0.0374
2734.00,0.0374
2733.50,0.0374
2733.00,0.0374
2732.50,0.0374
2732.00,0.0374
2731.50,0.0374
2731.00,0.0374
2730.50,0.0374
2730.00,0.0373
2729.50,0.0373
2729.00,0.0373
2728.50,0.0373
2728.00,0.0373
2727.50,0.0372
2727.00,0.0372
2726.50,0.0371
2726.00,0.0372
2725.50,0.0372
2725.00,0.0372
2724.50,0.0372
2724.00,0.0372
2723.50,0.0372
2723.00,0.0372
2722.50,0.0371
2722.00,0.0371
2721.50,0.0372
2721.00,0.0372
2720.50,0.0372
2720.00,0.0372
2719.50,0.0372
2719.00,0.0372
2718.50,0.0372
2718.00,0.0372
2717.50,0.0372
2717.00,0.0372
2716.50,0.0372
2716.00,0.0372
2715.50,0.0372
2715.00,0.0372
2714.50,0.0372
2714.00,0.0372
2713.50,0.0372
2713.00,0.0372
2712.50,0.0372
2712.00,0.0372
2711.50,0.0372
2711.00,0.0372
2710.50,0.0372
2710.00,0.0372
2709.50,0.0372
2709.00,0.0372
2708.50,0.0372
2708.00,0.0372
2707.50,0.0372
2707.00,0.0372
2706.50,0.0372
2706.00,0.0372
2705.50,0.0372
2705.00,0.0372
2704.50,0.0371
2704.00,0.0371
2703.50,0.0371
2703.00,0.0371
2702.50,0.0371
2702.00,0.0371
2701.50,0.0371
2701.00,0.0371
2700.50,0.0371
2700.00,0.0371
2699.50,0.0371
2699.00,0.0370
2698.50,0.0370
2698.00,0.0370
2697.50,0.0370
2697.00,0.0370
2696.50,0.0370
2696.00,0.0370
2695.50,0.0370
2695.00,0.0370
2694.50,0.0370
2694.00,0.0370
2693.50,0.0370
2693.00,0.0370
2692.50,0.0370
2692.00,0.0370
2691.50,0.0370
2691.00,0.0370
2690.50,0.0370
2690.00,0.0370
2689.50,0.0370
2689.00,0.0370
2688.50,0.0370
2688.00,0.0370
2687.50,0.0370
2687.00,0.0370
2686.50,0.0370
2686.00,0.0370
2685.50,0.0370
2685.00,0.0370
2684.50,0.0370
2684.00,0.0371
2683.50,0.0371
2683.00,0.0371
2682.50,0.0371
2682.00,0.0371
2681.50,0.0371
2681.00,0.0371
2680.50,0.0371
2680.00,0.0371
2679.50,0.0372
2679.00,0.0372
2678.50,0.0373
2678.00,0.0373
2677.50,0.0373
2677.00,0.0374
2676.50,0.0374
2676.00,0.0374
2675.50,0.0375
2675.00,0.0375
2674.50,0.0375
2674.00,0.0376
2673.50,0.0376
2673.00,0.0377
2672.50,0.0377
2672.00,0.0378
2671.50,0.0378
2671.00,0.0378
2670.50,0.0379
2670.00,0.0379
2669.50,0.0380
2669.00,0.0380
2668.50,0.0380
2668.00,0.0381
2667.50,0.0381
2667.00,0.0381
2666.50,0.0381
2666.00,0.0382
2665.50,0.0382
2665.00,0.0382
2664.50,0.0382
2664.00,0.0382
2663.50,0.0383
2663.00,0.0383
2662.50,0.0383
2662.00,0.0383
2661.50,0.0382
2661.00,0.0382
2660.50,0.0382
2660.00,0.0382
2659.50,0.0382
2659.00,0.0381
2658.50,0.0381
2658.00,0.0381
2657.50,0.0381
2657.00,0.0380
2656.50,0.0380
2656.00,0.0380
2655.50,0.0379
2655.00,0.0379
2654.50,0.0378
2654.00,0.0378
2653.50,0.0377
2653.00,0.0377
2652.50,0.0376
2652.00,0.0376
2651.50,0.0375
2651.00,0.0375
2650.50,0.0374
2650.00,0.0374
2649.50,0.0373
2649.00,0.0373
2648.50,0.0372
2648.00,0.0372
2647.50,0.0371
2647.00,0.0371
2646.50,0.0370
2646.00,0.0370
2645.50,0.0369
2645.00,0.0369
2644.50,0.0369
2644.00,0.0368
2643.50,0.0368
2643.00,0.0367
2642.50,0.0367
2642.00,0.0366
2641.50,0.0366
2641.00,0.0366
2640.50,0.0365
2640.00,0.0365
2639.50,0.0364
2639.00,0.0364
2638.50,0.0364
2638.00,0.0363
2637.50,0.0363
2637.00,0.0363
2636.50,0.0363
2636.00,0.0362
2635.50,0.0362
2635.00,0.0362
2634.50,0.0361
2634.00,0.0361
2633.50,0.0361
2633.00,0.0361
2632.50,0.0361
2632.00,0.0361
2631.50,0.0361
2631.00,0.0360
2630.50,0.0360
2630.00,0.0360
2629.50,0.0360
2629.00,0.0359
2628.50,0.0359
2628.00,0.0359
2627.50,0.0359
2627.00,0.0359
2626.50,0.0358
2626.00,0.0358
2625.50,0.0358
2625.00,0.0358
2624.50,0.0358
2624.00,0.0358
2623.50,0.0358
2623.00,0.0358
2622.50,0.0357
2622.00,0.0357
2621.50,0.0357
2621.00,0.0357
2620.50,0.0357
2620.00,0.0357
2619.50,0.0357
2619.00,0.0357
2618.50,0.0357
2618.00,0.0357
2617.50,0.0357
2617.00,0.0357
2616.50,0.0357
2616.00,0.0357
2615.50,0.0357
2615.00,0.0356
2614.50,0.0356
2614.00,0.0356
2613.50,0.0356
2613.00,0.0356
2612.50,0.0356
2612.00,0.0356
2611.50,0.0356
2611.00,0.0356
2610.50,0.0356
2610.00,0.0356
2609.50,0.0356
2609.00,0.0355
2608.50,0.0355
2608.00,0.0355
2607.50,0.0355
2607.00,0.0355
2606.50,0.0355
2606.00,0.0355
2605.50,0.0355
2605.00,0.0355
2604.50,0.0355
2604.00,0.0355
2603.50,0.0354
2603.00,0.0354
2602.50,0.0354
2602.00,0.0354
2601.50,0.0354
2601.00,0.0354
2600.50,0.0354
2600.00,0.0354
2599.50,0.0354
2599.00,0.0354
2598.50,0.0354
2598.00,0.0354
2597.50,0.0354
2597.00,0.0354
2596.50,0.0354
2596.00,0.0354
2595.50,0.0353
2595.00,0.0353
2594.50,0.0353
2594.00,0.0353
2593.50,0.0353
2593.00,0.0353
2592.50,0.0353
2592.00,0.0353
2591.50,0.0353
2591.00,0.0353
2590.50,0.0353
2590.00,0.0353
2589.50,0.0353
2589.00,0.0353
2588.50,0.0353
2588.00,0.0353
2587.50,0.0353
2587.00,0.0353
2586.50,0.0353
2586.00,0.0353
2585.50,0.0353
2585.00,0.0353
2584.50,0.0353
2584.00,0.0353
2583.50,0.0353
2583.00,0.0353
2582.50,0.0353
2582.00,0.0353
2581.50,0.0352
2581.00,0.0352
2580.50,0.0352
2580.00,0.0352
2579.50,0.0352
2579.00,0.0352
2578.50,0.0352
2578.00,0.0352
2577.50,0.0352
2577.00,0.0352
2576.50,0.0352
2576.00,0.0352
2575.50,0.0352
2575.00,0.0352
2574.50,0.0352
2574.00,0.0352
2573.50,0.0352
2573.00,0.0351
2572.50,0.0351
2572.00,0.0351
2571.50,0.0351
2571.00,0.0351
2570.50,0.0351
2570.00,0.0351
2569.50,0.0351
2569.00,0.0351
2568.50,0.0351
2568.00,0.0351
2567.50,0.0351
2567.00,0.0351
2566.50,0.0351
2566.00,0.0351
2565.50,0.0351
2565.00,0.0351
2564.50,0.0351
2564.00,0.0351
2563.50,0.0351
2563.00,0.0351
2562.50,0.0351
2562.00,0.0351
2561.50,0.0351
2561.00,0.0351
2560.50,0.0351
2560.00,0.0351
2559.50,0.0351
2559.00,0.0351
2558.50,0.0351
2558.00,0.0351
2557.50,0.0351
2557.00,0.0351
2556.50,0.0351
2556.00,0.0351
2555.50,0.0351
2555.00,0.0351
2554.50,0.0351
2554.00,0.0350
2553.50,0.0350
2553.00,0.0350
2552.50,0.0350
2552.00,0.0350
2551.50,0.0350
2551.00,0.0350
2550.50,0.0350
2550.00,0.0350
2549.50,0.0350
2549.00,0.0350
2548.50,0.0350
2548.00,0.0350
2547.50,0.0350
2547.00,0.0350
2546.50,0.0350
2546.00,0.0349
2545.50,0.0349
2545.00,0.0349
2544.50,0.0349
2544.00,0.0349
2543.50,0.0349
2543.00,0.0349
2542.50,0.0349
2542.00,0.0349
2541.50,0.0349
2541.00,0.0348
2540.50,0.0348
2540.00,0.0348
2539.50,0.0348
2539.00,0.0348
2538.50,0.0348
2538.00,0.0348
2537.50,0.0348
2537.00,0.0348
2536.50,0.0348
2536.00,0.0348
2535.50,0.0348
2535.00,0.0347
2534.50,0.0347
2534.00,0.0347
2533.50,0.0347
2533.00,0.0347
2532.50,0.0347
2532.00,0.0347
2531.50,0.0347
2531.00,0.0347
2530.50,0.0347
2530.00,0.0347
2529.50,0.0347
2529.00,0.0347
2528.50,0.0347
2528.00,0.0347
2527.50,0.0347
2527.00,0.0347
2526.50,0.0347
2526.00,0.0347
2525.50,0.0347
2525.00,0.0348
2524.50,0.0348
2524.00,0.0348
2523.50,0.0348
2523.00,0.0348
2522.50,0.0348
2522.00,0.0348
2521.50,0.0348
2521.00,0.0348
2520.50,0.0348
2520.00,0.0349
2519.50,0.0349
2519.00,0.0349
2518.50,0.0349
2518.00,0.0349
2517.50,0.0349
2517.00,0.0349
2516.50,0.0349
2516.00,0.0349
2515.50,0.0350
2515.00,0.0350
2514.50,0.0350
2514.00,0.0351
2513.50,0.0351
2513.00,0.0351
2512.50,0.0352
2512.00,0.0352
2511.50,0.0352
2511.00,0.0353
2510.50,0.0353
2510.00,0.0354
2509.50,0.0355
2509.00,0.0355
2508.50,0.0356
2508.00,0.0357
2507.50,0.0357
2507.00,0.0358
2506.50,0.0360
2506.00,0.0361
2505.50,0.0362
2505.00,0.0363
2504.50,0.0364
2504.00,0.0366
2503.50,0.0367
2503.00,0.0368
2502.50,0.0370
2502.00,0.0371
2501.50,0.0372
2501.00,0.0373
2500.50,0.0373
2500.00,0.0374
2499.50,0.0374
2499.00,0.0375
2498.50,0.0375
2498.00,0.0374
2497.50,0.0374
2497.00,0.0373
2496.50,0.0373
2496.00,0.0372
2495.50,0.0371
2495.00,0.0370
2494.50,0.0370
2494.00,0.0369
2493.50,0.0368
2493.00,0.0367
2492.50,0.0366
2492.00,0.0366
2491.50,0.0365
2491.00,0.0364
2490.50,0.0363
2490.00,0.0362
2489.50,0.0361
2489.00,0.0361
2488.50,0.0360
2488.00,0.0359
2487.50,0.0359
2487.00,0.0358
2486.50,0.0358
2486.00,0.0357
2485.50,0.0357
2485.00,0.0356
2484.50,0.0356
2484.00,0.0355
2483.50,0.0355
2483.00,0.0354
2482.50,0.0354
2482.00,0.0354
2481.50,0.0353
2481.00,0.0353
2480.50,0.0353
2480.00,0.0353
2479.50,0.0353
2479.00,0.0352
2478.50,0.0352
2478.00,0.0352
2477.50,0.0352
2477.00,0.0352
2476.50,0.0352
2476.00,0.0351
2475.50,0.0351
2475.00,0.0351
2474.50,0.0351
2474.00,0.0351
2473.50,0.0351
2473.00,0.0350
2472.50,0.0350
2472.00,0.0350
2471.50,0.0350
2471.00,0.0350
2470.50,0.0350
2470.00,0.0350
2469.50,0.0350
2469.00,0.0350
2468.50,0.0350
2468.00,0.0350
2467.50,0.0350
2467.00,0.0349
2466.50,0.0349
2466.00,0.0350
2465.50,0.0349
2465.00,0.0349
2464.50,0.0349
2464.00,0.0349
2463.50,0.0349
2463.00,0.0349
2462.50,0.0349
2462.00,0.0349
2461.50,0.0349
2461.00,0.0349
2460.50,0.0349
2460.00,0.0349
2459.50,0.0349
2459.00,0.0348
2458.50,0.0348
2458.00,0.0348
2457.50,0.0348
2457.00,0.0348
2456.50,0.0348
2456.00,0.0348
2455.50,0.0348
2455.00,0.0348
2454.50,0.0348
2454.00,0.0347
2453.50,0.0347
2453.00,0.0347
2452.50,0.0347
2452.00,0.0347
2451.50,0.0347
2451.00,0.0347
2450.50,0.0347
2450.00,0.0347
2449.50,0.0347
2449.00,0.0347
2448.50,0.0347
2448.00,0.0347
2447.50,0.0347
2447.00,0.0347
2446.50,0.0347
2446.00,0.0347
2445.50,0.0347
2445.00,0.0347
2444.50,0.0347
2444.00,0.0347
2443.50,0.0347
2443.00,0.0347
2442.50,0.0347
2442.00,0.0347
2441.50,0.0347
2441.00,0.0347
2440.50,0.0347
2440.00,0.0347
2439.50,0.0347
2439.00,0.0347
2438.50,0.0347
2438.00,0.0347
2437.50,0.0347
2437.00,0.0347
2436.50,0.0346
2436.00,0.0346
2435.50,0.0346
2435.00,0.0346
2434.50,0.0346
2434.00,0.0346
2433.50,0.0346
2433.00,0.0346
2432.50,0.0346
2432.00,0.0346
2431.50,0.0346
2431.00,0.0346
2430.50,0.0346
2430.00,0.0346
2429.50,0.0346
2429.00,0.0346
2428.50,0.0345
2428.00,0.0345
2427.50,0.0345
2427.00,0.0345
2426.50,0.0345
2426.00,0.0345
2425.50,0.0345
2425.00,0.0345
2424.50,0.0345
2424.00,0.0345
2423.50,0.0345
2423.00,0.0345
2422.50,0.0345
2422.00,0.0345
2421.50,0.0345
2421.00,0.0345
2420.50,0.0345
2420.00,0.0345
2419.50,0.0345
2419.00,0.0345
2418.50,0.0345
2418.00,0.0345
2417.50,0.0345
2417.00,0.0345
2416.50,0.0345
2416.00,0.0345
2415.50,0.0345
2415.00,0.0345
2414.50,0.0345
2414.00,0.0345
2413.50,0.0345
2413.00,0.0345
2412.50,0.0345
2412.00,0.0345
2411.50,0.0345
2411.00,0.0345
2410.50,0.0345
2410.00,0.0345
2409.50,0.0345
2409.00,0.0345
2408.50,0.0345
2408.00,0.0345
2407.50,0.0345
2407.00,0.0345
2406.50,0.0345
2406.00,0.0345
2405.50,0.0345
2405.00,0.0345
2404.50,0.0345
2404.00,0.0344
2403.50,0.0344
2403.00,0.0344
2402.50,0.0344
2402.00,0.0344
2401.50,0.0344
2401.00,0.0344
2400.50,0.0344
2400.00,0.0344
2399.50,0.0344
2399.00,0.0344
2398.50,0.0344
2398.00,0.0344
2397.50,0.0344
2397.00,0.0344
2396.50,0.0344
2396.00,0.0344
2395.50,0.0344
2395.00,0.0344
2394.50,0.0344
2394.00,0.0344
2393.50,0.0344
2393.00,0.0344
2392.50,0.0344
2392.00,0.0344
2391.50,0.0344
2391.00,0.0344
2390.50,0.0344
2390.00,0.0344
2389.50,0.0344
2389.00,0.0344
2388.50,0.0344
2388.00,0.0344
2387.50,0.0344
2387.00,0.0343
2386.50,0.0343
2386.00,0.0343
2385.50,0.0343
2385.00,0.0343
2384.50,0.0343
2384.00,0.0343
2383.50,0.0343
2383.00,0.0343
2382.50,0.0343
2382.00,0.0343
2381.50,0.0343
2381.00,0.0343
2380.50,0.0343
2380.00,0.0344
2379.50,0.0344
2379.00,0.0345
2378.50,0.0345
2378.00,0.0346
2377.50,0.0346
2377.00,0.0347
2376.50,0.0347
2376.00,0.0347
2375.50,0.0348
2375.00,0.0348
2374.50,0.0348
2374.00,0.0348
2373.50,0.0347
2373.00,0.0347
2372.50,0.0347
2372.00,0.0347
2371.50,0.0347
2371.00,0.0347
2370.50,0.0347
2370.00,0.0347
2369.50,0.0346
2369.00,0.0347
2368.50,0.0347
2368.00,0.0347
2367.50,0.0347
2367.00,0.0347
2366.50,0.0347
2366.00,0.0347
2365.50,0.0346
2365.00,0.0346
2364.50,0.0347
2364.00,0.0347
2363.50,0.0347
2363.00,0.0347
2362.50,0.0347
2362.00,0.0347
2361.50,0.0347
2361.00,0.0347
2360.50,0.0347
2360.00,0.0347
2359.50,0.0347
2359.00,0.0347
2358.50,0.0347
2358.00,0.0346
2357.50,0.0346
2357.00,0.0346
2356.50,0.0346
2356.00,0.0347
2355.50,0.0347
2355.00,0.0348
2354.50,0.0348
2354.00,0.0348
2353.50,0.0347
2353.00,0.0348
2352.50,0.0348
2352.00,0.0348
2351.50,0.0348
2351.00,0.0347
2350.50,0.0346
2350.00,0.0345
2349.50,0.0345
2349.00,0.0346
2348.50,0.0346
2348.00,0.0346
2347.50,0.0347
2347.00,0.0347
2346.50,0.0347
2346.00,0.0347
2345.50,0.0346
2345.00,0.0346
2344.50,0.0346
2344.00,0.0346
2343.50,0.0345
2343.00,0.0345
2342.50,0.0346
2342.00,0.0346
2341.50,0.0346
2341.00,0.0346
2340.50,0.0347
2340.00,0.0347
2339.50,0.0347
2339.00,0.0347
2338.50,0.0348
2338.00,0.0348
2337.50,0.0348
2337.00,0.0347
2336.50,0.0347
2336.00,0.0347
2335.50,0.0347
2335.00,0.0347
2334.50,0.0347
2334.00,0.0347
2333.50,0.0347
2333.00,0.0347
2332.50,0.0347
2332.00,0.0347
2331.50,0.0347
2331.00,0.0347
2330.50,0.0347
2330.00,0.0347
2329.50,0.0347
2329.00,0.0346
2328.50,0.0346
2328.00,0.0346
2327.50,0.0346
2327.00,0.0346
2326.50,0.0346
2326.00,0.0346
2325.50,0.0346
2325.00,0.0346
2324.50,0.0346
2324.00,0.0346
2323.50,0.0346
2323.00,0.0345
2322.50,0.0345
2322.00,0.0346
2321.50,0.0346
2321.00,0.0345
2320.50,0.0345
2320.00,0.0346
2319.50,0.0346
2319.00,0.0345
2318.50,0.0345
2318.00,0.0346
2317.50,0.0346
2317.00,0.0345
2316.50,0.0345
2316.00,0.0346
2315.50,0.0346
2315.00,0.0345
2314.50,0.0345
2314.00,0.0345
2313.50,0.0346
2313.00,0.0345
2312.50,0.0345
2312.00,0.0345
2311.50,0.0345
2311.00,0.0344
2310.50,0.0344
2310.00,0.0344
2309.50,0.0344
2309.00,0.0344
2308.50,0.0344
2308.00,0.0344
2307.50,0.0344
2307.00,0.0344
2306.50,0.0344
2306.00,0.0344
2305.50,0.0345
2305.00,0.0345
2304.50,0.0344
2304.00,0.0344
2303.50,0.0344
2303.00,0.0344
2302.50,0.0344
2302.00,0.0344
2301.50,0.0344
2301.00,0.0344
2300.50,0.0344
2300.00,0.0344
2299.50,0.0345
2299.00,0.0345
2298.50,0.0345
2298.00,0.0345
2297.50,0.0345
2297.00,0.0345
2296.50,0.0345
2296.00,0.0345
2295.50,0.0345
2295.00,0.0346
2294.50,0.0345
2294.00,0.0345
2293.50,0.0345
2293.00,0.0346
2292.50,0.0346
2292.00,0.0346
2291.50,0.0346
2291.00,0.0346
2290.50,0.0346
2290.00,0.0346
2289.50,0.0346
2289.00,0.0346
2288.50,0.0346
2288.00,0.0347
2287.50,0.0347
2287.00,0.0347
2286.50,0.0347
2286.00,0.0347
2285.50,0.0347
2285.00,0.0347
2284.50,0.0347
2284.00,0.0347
2283.50,0.0348
2283.00,0.0348
2282.50,0.0348
2282.00,0.0348
2281.50,0.0348
2281.00,0.0348
2280.50,0.0348
2280.00,0.0348
2279.50,0.0348
2279.00,0.0348
2278.50,0.0348
2278.00,0.0348
2277.50,0.0348
2277.00,0.0348
2276.50,0.0349
2276.00,0.0349
2275.50,0.0349
2275.00,0.0349
2274.50,0.0349
2274.00,0.0349
2273.50,0.0349
2273.00,0.0349
2272.50,0.0349
2272.00,0.0349
2271.50,0.0349
2271.00,0.0349
2270.50,0.0349
2270.00,0.0349
2269.50,0.0349
2269.00,0.0349
2268.50,0.0349
2268.00,0.0349
2267.50,0.0349
2267.00,0.0349
2266.50,0.0349
2266.00,0.0349
2265.50,0.0349
2265.00,0.0349
2264.50,0.0349
2264.00,0.0349
2263.50,0.0349
2263.00,0.0349
2262.50,0.0349
2262.00,0.0349
2261.50,0.0349
2261.00,0.0349
2260.50,0.0349
2260.00,0.0349
2259.50,0.0349
2259.00,0.0349
2258.50,0.0349
2258.00,0.0349
2257.50,0.0349
2257.00,0.0350
2256.50,0.0349
2256.00,0.0349
2255.50,0.0349
2255.00,0.0349
2254.50,0.0349
2254.00,0.0349
2253.50,0.0349
2253.00,0.0350
2252.50,0.0350
2252.00,0.0350
2251.50,0.0350
2251.00,0.0350
2250.50,0.0350
2250.00,0.0350
2249.50,0.0350
2249.00,0.0350
2248.50,0.0350
2248.00,0.0350
2247.50,0.0350
2247.00,0.0351
2246.50,0.0351
2246.00,0.0351
2245.50,0.0351
2245.00,0.0351
2244.50,0.0351
2244.00,0.0351
2243.50,0.0351
2243.00,0.0352
2242.50,0.0352
2242.00,0.0352
2241.50,0.0352
2241.00,0.0352
2240.50,0.0352
2240.00,0.0352
2239.50,0.0352
2239.00,0.0353
2238.50,0.0353
2238.00,0.0353
2237.50,0.0353
2237.00,0.0353
2236.50,0.0353
2236.00,0.0354
2235.50,0.0354
2235.00,0.0354
2234.50,0.0354
2234.00,0.0354
2233.50,0.0355
2233.00,0.0355
2232.50,0.0355
2232.00,0.0355
2231.50,0.0355
2231.00,0.0355
2230.50,0.0356
2230.00,0.0356
2229.50,0.0356
2229.00,0.0356
2228.50,0.0357
2228.00,0.0357
2227.50,0.0357
2227.00,0.0358
2226.50,0.0358
2226.00,0.0358
2225.50,0.0358
2225.00,0.0359
2224.50,0.0359
2224.00,0.0359
2223.50,0.0359
2223.00,0.0360
2222.50,0.0360
2222.00,0.0360
2221.50,0.0361
2221.00,0.0361
2220.50,0.0362
2220.00,0.0362
2219.50,0.0362
2219.00,0.0363
2218.50,0.0363
2218.00,0.0364
2217.50,0.0364
2217.00,0.0365
2216.50,0.0365
2216.00,0.0366
2215.50,0.0366
2215.00,0.0367
2214.50,0.0367
2214.00,0.0368
2213.50,0.0368
2213.00,0.0369
2212.50,0.0369
2212.00,0.0370
2211.50,0.0371
2211.00,0.0371
2210.50,0.0372
2210.00,0.0373
2209.50,0.0373
2209.00,0.0374
2208.50,0.0375
2208.00,0.0376
2207.50,0.0376
2207.00,0.0377
2206.50,0.0378
2206.00,0.0379
2205.50,0.0380
2205.00,0.0381
2204.50,0.0382
2204.00,0.0383
2203.50,0.0384
2203.00,0.0385
2202.50,0.0386
2202.00,0.0387
2201.50,0.0388
2201.00,0.0389
2200.50,0.0390
2200.00,0.0392
2199.50,0.0393
2199.00,0.0394
2198.50,0.0396
2198.00,0.0397
2197.50,0.0399
2197.00,0.0400
2196.50,0.0402
2196.00,0.0404
2195.50,0.0406
2195.00,0.0407
2194.50,0.0409
2194.00,0.0411
2193.50,0.0413
2193.00,0.0415
2192.50,0.0418
2192.00,0.0420
2191.50,0.0422
2191.00,0.0425
2190.50,0.0427
2190.00,0.0430
2189.50,0.0432
2189.00,0.0435
2188.50,0.0438
2188.00,0.0441
2187.50,0.0444
2187.00,0.0447
2186.50,0.0451
2186.00,0.0454
2185.50,0.0457
2185.00,0.0461
2184.50,0.0464
2184.00,0.0468
2183.50,0.0472
2183.00,0.0476
2182.50,0.0480
2182.00,0.0484
2181.50,0.0488
2181.00,0.0492
2180.50,0.0497
2180.00,0.0501
2179.50,0.0505
2179.00,0.0510
2178.50,0.0514
2178.00,0.0519
2177.50,0.0523
2177.00,0.0528
2176.50,0.0533
2176.00,0.0537
2175.50,0.0542
2175.00,0.0546
2174.50,0.0551
2174.00,0.0555
2173.50,0.0559
2173.00,0.0564
2172.50,0.0568
2172.00,0.0572
2171.50,0.0576
2171.00,0.0579
2170.50,0.0583
2170.00,0.0586
2169.50,0.0590
2169.00,0.0593
2168.50,0.0596
2168.00,0.0599
2167.50,0.0601
2167.00,0.0604
2166.50,0.0606
2166.00,0.0608
2165.50,0.0609
2165.00,0.0611
2164.50,0.0612
2164.00,0.0612
2163.50,0.0613
2163.00,0.0613
2162.50,0.0613
2162.00,0.0613
2161.50,0.0613
2161.00,0.0612
2160.50,0.0611
2160.00,0.0610
2159.50,0.0608
2159.00,0.0607
2158.50,0.0605
2158.00,0.0603
2157.50,0.0600
2157.00,0.0598
2156.50,0.0595
2156.00,0.0592
2155.50,0.0589
2155.00,0.0585
2154.50,0.0582
2154.00,0.0578
2153.50,0.0574
2153.00,0.0570
2152.50,0.0566
2152.00,0.0562
2151.50,0.0558
2151.00,0.0554
2150.50,0.0549
2150.00,0.0545
2149.50,0.0540
2149.00,0.0536
2148.50,0.0531
2148.00,0.0527
2147.50,0.0522
2147.00,0.0518
2146.50,0.0513
2146.00,0.0509
2145.50,0.0504
2145.00,0.0500
2144.50,0.0496
2144.00,0.0492
2143.50,0.0487
2143.00,0.0483
2142.50,0.0479
2142.00,0.0475
2141.50,0.0471
2141.00,0.0468
2140.50,0.0464
2140.00,0.0461
2139.50,0.0457
2139.00,0.0454
2138.50,0.0451
2138.00,0.0447
2137.50,0.0444
2137.00,0.0441
2136.50,0.0438
2136.00,0.0436
2135.50,0.0433
2135.00,0.0430
2134.50,0.0428
2134.00,0.0425
2133.50,0.0423
2133.00,0.0421
2132.50,0.0419
2132.00,0.0417
2131.50,0.0415
2131.00,0.0413
2130.50,0.0411
2130.00,0.0409
2129.50,0.0408
2129.00,0.0406
2128.50,0.0404
2128.00,0.0403
2127.50,0.0402
2127.00,0.0400
2126.50,0.0399
2126.00,0.0398
2125.50,0.0397
2125.00,0.0396
2124.50,0.0395
2124.00,0.0393
2123.50,0.0392
2123.00,0.0391
2122.50,0.0390
2122.00,0.0390
2121.50,0.0389
2121.00,0.0388
2120.50,0.0387
2120.00,0.0386
2119.50,0.0386
2119.00,0.0385
2118.50,0.0384
2118.00,0.0383
2117.50,0.0383
2117.00,0.0382
2116.50,0.0382
2116.00,0.0381
2115.50,0.0381
2115.00,0.0380
2114.50,0.0380
2114.00,0.0379
2113.50,0.0379
2113.00,0.0378
2112.50,0.0378
2112.00,0.0378
2111.50,0.0377
2111.00,0.0377
2110.50,0.0376
2110.00,0.0376
2109.50,0.0376
2109.00,0.0376
2108.50,0.0375
2108.00,0.0375
2107.50,0.0375
2107.00,0.0375
2106.50,0.0374
2106.00,0.0374
2105.50,0.0374
2105.00,0.0374
2104.50,0.0374
2104.00,0.0373
2103.50,0.0373
2103.00,0.0373
2102.50,0.0373
2102.00,0.0372
2101.50,0.0372
2101.00,0.0372
2100.50,0.0372
2100.00,0.0372
2099.50,0.0372
2099.00,0.0372
2098.50,0.0371
2098.00,0.0371
2097.50,0.0371
2097.00,0.0371
2096.50,0.0371
2096.00,0.0370
2095.50,0.0370
2095.00,0.0370
2094.50,0.0370
2094.00,0.0370
2093.50,0.0370
2093.00,0.0370
2092.50,0.0370
2092.00,0.0369
2091.50,0.0369
2091.00,0.0369
2090.50,0.0369
2090.00,0.0369
2089.50,0.0369
2089.00,0.0369
2088.50,0.0369
2088.00,0.0369
2087.50,0.0369
2087.00,0.0369
2086.50,0.0369
2086.00,0.0369
2085.50,0.0369
2085.00,0.0369
2084.50,0.0369
2084.00,0.0369
2083.50,0.0369
2083.00,0.0369
2082.50,0.0369
2082.00,0.0369
2081.50,0.0369
2081.00,0.0369
2080.50,0.0369
2080.00,0.0369
2079.50,0.0369
2079.00,0.0370
2078.50,0.0370
2078.00,0.0370
2077.50,0.0370
2077.00,0.0370
2076.50,0.0370
2076.00,0.0370
2075.50,0.0370
2075.00,0.0370
2074.50,0.0370
2074.00,0.0370
2073.50,0.0371
2073.00,0.0371
2072.50,0.0371
2072.00,0.0371
2071.50,0.0371
2071.00,0.0372
2070.50,0.0372
2070.00,0.0372
2069.50,0.0372
2069.00,0.0372
2068.50,0.0373
2068.00,0.0373
2067.50,0.0373
2067.00,0.0373
2066.50,0.0373
2066.00,0.0374
2065.50,0.0374
2065.00,0.0374
2064.50,0.0374
2064.00,0.0375
2063.50,0.0375
2063.00,0.0375
2062.50,0.0376
2062.00,0.0376
2061.50,0.0376
2061.00,0.0376
2060.50,0.0377
2060.00,0.0377
2059.50,0.0377
2059.00,0.0378
2058.50,0.0378
2058.00,0.0378
2057.50,0.0378
2057.00,0.0379
2056.50,0.0379
2056.00,0.0379
2055.50,0.0379
2055.00,0.0380
2054.50,0.0380
2054.00,0.0380
2053.50,0.0380
2053.00,0.0380
2052.50,0.0380
2052.00,0.0380
2051.50,0.0380
2051.00,0.0380
2050.50,0.0380
2050.00,0.0380
2049.50,0.0380
2049.00,0.0379
2048.50,0.0379
2048.00,0.0379
2047.50,0.0378
2047.00,0.0377
2046.50,0.0377
2046.00,0.0376
2045.50,0.0376
2045.00,0.0375
2044.50,0.0374
2044.00,0.0373
2043.50,0.0372
2043.00,0.0371
2042.50,0.0370
2042.00,0.0369
2041.50,0.0368
2041.00,0.0367
2040.50,0.0367
2040.00,0.0366
2039.50,0.0365
2039.00,0.0365
2038.50,0.0364
2038.00,0.0363
2037.50,0.0362
2037.00,0.0362
2036.50,0.0361
2036.00,0.0361
2035.50,0.0360
2035.00,0.0360
2034.50,0.0360
2034.00,0.0359
2033.50,0.0359
2033.00,0.0359
2032.50,0.0359
2032.00,0.0358
2031.50,0.0358
2031.00,0.0358
2030.50,0.0358
2030.00,0.0358
2029.50,0.0358
2029.00,0.0358
2028.50,0.0358
2028.00,0.0358
2027.50,0.0358
2027.00,0.0358
2026.50,0.0358
2026.00,0.0358
2025.50,0.0358
2025.00,0.0359
2024.50,0.0359
2024.00,0.0359
2023.50,0.0359
2023.00,0.0359
2022.50,0.0360
2022.00,0.0360
2021.50,0.0361
2021.00,0.0361
2020.50,0.0361
2020.00,0.0362
2019.50,0.0362
2019.00,0.0362
2018.50,0.0363
2018.00,0.0363
2017.50,0.0363
2017.00,0.0364
2016.50,0.0364
2016.00,0.0365
2015.50,0.0365
2015.00,0.0366
2014.50,0.0366
2014.00,0.0367
2013.50,0.0367
2013.00,0.0367
2012.50,0.0368
2012.00,0.0368
2011.50,0.0369
2011.00,0.0369
2010.50,0.0370
2010.00,0.0370
2009.50,0.0371
2009.00,0.0371
2008.50,0.0372
2008.00,0.0372
2007.50,0.0372
2007.00,0.0373
2006.50,0.0373
2006.00,0.0373
2005.50,0.0373
2005.00,0.0374
2004.50,0.0374
2004.00,0.0374
2003.50,0.0374
2003.00,0.0375
2002.50,0.0375
2002.00,0.0375
2001.50,0.0375
2001.00,0.0376
2000.50,0.0376
2000.00,0.0376
1999.50,0.0376
1999.00,0.0377
1998.50,0.0377
1998.00,0.0377
1997.50,0.0377
1997.00,0.0377
1996.50,0.0377
1996.00,0.0377
1995.50,0.0377
1995.00,0.0377
1994.50,0.0377
1994.00,0.0376
1993.50,0.0376
1993.00,0.0376
1992.50,0.0376
1992.00,0.0376
1991.50,0.0376
1991.00,0.0376
1990.50,0.0377
1990.00,0.0377
1989.50,0.0377
1989.00,0.0377
1988.50,0.0377
1988.00,0.0377
1987.50,0.0378
1987.00,0.0378
1986.50,0.0378
1986.00,0.0379
1985.50,0.0379
1985.00,0.0380
1984.50,0.0380
1984.00,0.0381
1983.50,0.0381
1983.00,0.0382
1982.50,0.0382
1982.00,0.0383
1981.50,0.0383
1981.00,0.0384
1980.50,0.0385
1980.00,0.0386
1979.50,0.0386
1979.00,0.0387
1978.50,0.0388
1978.00,0.0389
1977.50,0.0389
1977.00,0.0390
1976.50,0.0391
1976.00,0.0392
1975.50,0.0393
1975.00,0.0394
1974.50,0.0395
1974.00,0.0396
1973.50,0.0397
1973.00,0.0399
1972.50,0.0400
1972.00,0.0401
1971.50,0.0402
1971.00,0.0403
1970.50,0.0404
1970.00,0.0406
1969.50,0.0407
1969.00,0.0408
1968.50,0.0409
1968.00,0.0410
1967.50,0.0412
1967.00,0.0413
1966.50,0.0414
1966.00,0.0415
1965.50,0.0416
1965.00,0.0417
1964.50,0.0418
1964.00,0.0419
1963.50,0.0420
1963.00,0.0421
1962.50,0.0422
1962.00,0.0423
1961.50,0.0424
1961.00,0.0425
1960.50,0.0426
1960.00,0.0427
1959.50,0.0428
1959.00,0.0428
1958.50,0.0429
1958.00,0.0430
1957.50,0.0431
1957.00,0.0432
1956.50,0.0433
1956.00,0.0434
1955.50,0.0435
1955.00,0.0436
1954.50,0.0437
1954.00,0.0438
1953.50,0.0440
1953.00,0.0441
1952.50,0.0442
1952.00,0.0443
1951.50,0.0444
1951.00,0.0446
1950.50,0.0447
1950.00,0.0448
1949.50,0.0449
1949.00,0.0450
1948.50,0.0452
1948.00,0.0453
1947.50,0.0454
1947.00,0.0455
1946.50,0.0456
1946.00,0.0456
1945.50,0.0457
1945.00,0.0457
1944.50,0.0457
1944.00,0.0457
1943.50,0.0457
1943.00,0.0457
1942.50,0.0456
1942.00,0.0456
1941.50,0.0455
1941.00,0.0453
1940.50,0.0452
1940.00,0.0451
1939.50,0.0449
1939.00,0.0448
1938.50,0.0446
1938.00,0.0444
1937.50,0.0442
1937.00,0.0440
1936.50,0.0438
1936.00,0.0436
1935.50,0.0435
1935.00,0.0433
1934.50,0.0431
1934.00,0.0429
1933.50,0.0428
1933.00,0.0426
1932.50,0.0425
1932.00,0.0423
1931.50,0.0422
1931.00,0.0421
1930.50,0.0420
1930.00,0.0419
1929.50,0.0418
1929.00,0.0417
1928.50,0.0416
1928.00,0.0415
1927.50,0.0415
1927.00,0.0414
1926.50,0.0413
1926.00,0.0413
1925.50,0.0412
1925.00,0.0412
1924.50,0.0411
1924.00,0.0411
1923.50,0.0411
1923.00,0.0410
1922.50,0.0410
1922.00,0.0409
1921.50,0.0409
1921.00,0.0408
1920.50,0.0408
1920.00,0.0407
1919.50,0.0407
1919.00,0.0407
1918.50,0.0406
1918.00,0.0405
1917.50,0.0405
1917.00,0.0404
1916.50,0.0404
1916.00,0.0403
1915.50,0.0402
1915.00,0.0402
1914.50,0.0401
1914.00,0.0400
1913.50,0.0400
1913.00,0.0399
1912.50,0.0398
1912.00,0.0397
1911.50,0.0396
1911.00,0.0395
1910.50,0.0394
1910.00,0.0394
1909.50,0.0393
1909.00,0.0393
1908.50,0.0392
1908.00,0.0391
1907.50,0.0391
1907.00,0.0390
1906.50,0.0390
1906.00,0.0389
1905.50,0.0389
1905.00,0.0388
1904.50,0.0388
1904.00,0.0388
1903.50,0.0387
1903.00,0.0387
1902.50,0.0386
1902.00,0.0386
1901.50,0.0386
1901.00,0.0385
1900.50,0.0385
1900.00,0.0385
1899.50,0.0385
1899.00,0.0385
1898.50,0.0385
1898.00,0.0385
1897.50,0.0384
1897.00,0.0384
1896.50,0.0384
1896.00,0.0384
1895.50,0.0384
1895.00,0.0384
1894.50,0.0384
1894.00,0.0384
1893.50,0.0384
1893.00,0.0384
1892.50,0.0384
1892.00,0.0384
1891.50,0.0384
1891.00,0.0384
1890.50,0.0384
1890.00,0.0384
1889.50,0.0384
1889.00,0.0384
1888.50,0.0384
1888.00,0.0384
1887.50,0.0384
1887.00,0.0384
1886.50,0.0384
1886.00,0.0384
1885.50,0.0384
1885.00,0.0384
1884.50,0.0384
1884.00,0.0384
1883.50,0.0384
1883.00,0.0384
1882.50,0.0384
1882.00,0.0384
1881.50,0.0384
1881.00,0.0384
1880.50,0.0384
1880.00,0.0384
1879.50,0.0384
1879.00,0.0384
1878.50,0.0385
1878.00,0.0385
1877.50,0.0385
1877.00,0.0385
1876.50,0.0385
1876.00,0.0385
1875.50,0.0385
1875.00,0.0385
1874.50,0.0385
1874.00,0.0385
1873.50,0.0385
1873.00,0.0385
1872.50,0.0385
1872.00,0.0385
1871.50,0.0385
1871.00,0.0385
1870.50,0.0385
1870.00,0.0385
1869.50,0.0385
1869.00,0.0385
1868.50,0.0385
1868.00,0.0385
1867.50,0.0386
1867.00,0.0386
1866.50,0.0385
1866.00,0.0385
1865.50,0.0385
1865.00,0.0385
1864.50,0.0385
1864.00,0.0385
1863.50,0.0385
1863.00,0.0385
1862.50,0.0385
1862.00,0.0385
1861.50,0.0385
1861.00,0.0385
1860.50,0.0385
1860.00,0.0385
1859.50,0.0385
1859.00,0.0385
1858.50,0.0385
1858.00,0.0385
1857.50,0.0385
1857.00,0.0385
1856.50,0.0385
1856.00,0.0385
1855.50,0.0385
1855.00,0.0385
1854.50,0.0385
1854.00,0.0385
1853.50,0.0385
1853.00,0.0385
1852.50,0.0385
1852.00,0.0385
1851.50,0.0385
1851.00,0.0385
1850.50,0.0385
1850.00,0.0385
1849.50,0.0385
1849.00,0.0385
1848.50,0.0385
1848.00,0.0385
1847.50,0.0385
1847.00,0.0384
1846.50,0.0384
1846.00,0.0384
1845.50,0.0384
1845.00,0.0384
1844.50,0.0383
1844.00,0.0383
1843.50,0.0384
1843.00,0.0384
1842.50,0.0384
1842.00,0.0384
1841.50,0.0384
1841.00,0.0383
1840.50,0.0383
1840.00,0.0384
1839.50,0.0384
1839.00,0.0384
1838.50,0.0384
1838.00,0.0384
1837.50,0.0384
1837.00,0.0384
1836.50,0.0384
1836.00,0.0384
1835.50,0.0384
1835.00,0.0384
1834.50,0.0384
1834.00,0.0384
1833.50,0.0384
1833.00,0.0384
1832.50,0.0384
1832.00,0.0384
1831.50,0.0384
1831.00,0.0384
1830.50,0.0384
1830.00,0.0385
1829.50,0.0385
1829.00,0.0385
1828.50,0.0386
1828.00,0.0386
1827.50,0.0386
1827.00,0.0386
1826.50,0.0386
1826.00,0.0386
1825.50,0.0386
1825.00,0.0386
1824.50,0.0387
1824.00,0.0387
1823.50,0.0387
1823.00,0.0387
1822.50,0.0388
1822.00,0.0388
1821.50,0.0388
1821.00,0.0388
1820.50,0.0389
1820.00,0.0389
1819.50,0.0389
1819.00,0.0390
1818.50,0.0390
1818.00,0.0390
1817.50,0.0391
1817.00,0.0391
1816.50,0.0391
1816.00,0.0392
1815.50,0.0392
1815.00,0.0392
1814.50,0.0393
1814.00,0.0393
1813.50,0.0393
1813.00,0.0394
1812.50,0.0394
1812.00,0.0395
1811.50,0.0395
1811.00,0.0396
1810.50,0.0396
1810.00,0.0396
1809.50,0.0397
1809.00,0.0397
1808.50,0.0398
1808.00,0.0398
1807.50,0.0399
1807.00,0.0399
1806.50,0.0400
1806.00,0.0400
1805.50,0.0401
1805.00,0.0401
1804.50,0.0401
1804.00,0.0402
1803.50,0.0403
1803.00,0.0403
1802.50,0.0403
1802.00,0.0404
1801.50,0.0404
1801.00,0.0405
1800.50,0.0405
1800.00,0.0406
1799.50,0.0406
1799.00,0.0407
1798.50,0.0407
1798.00,0.0407
1797.50,0.0408
1797.00,0.0408
1796.50,0.0409
1796.00,0.0409
1795.50,0.0410
1795.00,0.0410
1794.50,0.0411
1794.00,0.0411
1793.50,0.0411
1793.00,0.0411
1792.50,0.0412
1792.00,0.0413
1791.50,0.0413
1791.00,0.0414
1790.50,0.0414
1790.00,0.0414
1789.50,0.0415
1789.00,0.0415
1788.50,0.0416
1788.00,0.0416
1787.50,0.0416
1787.00,0.0417
1786.50,0.0417
1786.00,0.0417
1785.50,0.0417
1785.00,0.0417
1784.50,0.0418
1784.00,0.0418
1783.50,0.0418
1783.00,0.0419
1782.50,0.0419
1782.00,0.0419
1781.50,0.0419
1781.00,0.0420
1780.50,0.0420
1780.00,0.0420
1779.50,0.0420
1779.00,0.0420
1778.50,0.0420
1778.00,0.0420
1777.50,0.0420
1777.00,0.0420
1776.50,0.0420
1776.00,0.0420
1775.50,0.0420
1775.00,0.0420
1774.50,0.0420
1774.00,0.0420
1773.50,0.0420
1773.00,0.0420
1772.50,0.0420
1772.00,0.0420
1771.50,0.0420
1771.00,0.0420
1770.50,0.0420
1770.00,0.0419
1769.50,0.0419
1769.00,0.0419
1768.50,0.0419
1768.00,0.0419
1767.50,0.0419
1767.00,0.0419
1766.50,0.0419
1766.00,0.0419
1765.50,0.0419
1765.00,0.0419
1764.50,0.0418
1764.00,0.0418
1763.50,0.0418
1763.00,0.0418
1762.50,0.0418
1762.00,0.0418
1761.50,0.0417
1761.00,0.0418
1760.50,0.0418
1760.00,0.0418
1759.50,0.0418
1759.00,0.0418
1758.50,0.0418
1758.00,0.0417
1757.50,0.0417
1757.00,0.0417
1756.50,0.0417
1756.00,0.0417
1755.50,0.0417
1755.00,0.0417
1754.50,0.0417
1754.00,0.0417
1753.50,0.0417
1753.00,0.0417
1752.50,0.0417
1752.00,0.0417
1751.50,0.0416
1751.00,0.0416
1750.50,0.0416
1750.00,0.0416
1749.50,0.0417
1749.00,0.0417
1748.50,0.0417
1748.00,0.0417
1747.50,0.0417
1747.00,0.0417
1746.50,0.0417
1746.00,0.0417
1745.50,0.0418
1745.00,0.0418
1744.50,0.0418
1744.00,0.0418
1743.50,0.0418
1743.00,0.0418
1742.50,0.0418
1742.00,0.0418
1741.50,0.0418
1741.00,0.0419
1740.50,0.0419
1740.00,0.0418
1739.50,0.0418
1739.00,0.0419
1738.50,0.0419
1738.00,0.0419
1737.50,0.0419
1737.00,0.0420
1736.50,0.0420
1736.00,0.0420
1735.50,0.0420
1735.00,0.0420
1734.50,0.0420
1734.00,0.0420
1733.50,0.0420
1733.00,0.0421
1732.50,0.0422
1732.00,0.0422
1731.50,0.0422
1731.00,0.0423
1730.50,0.0423
1730.00,0.0423
1729.50,0.0423
1729.00,0.0424
1728.50,0.0424
1728.00,0.0424
1727.50,0.0424
1727.00,0.0424
1726.50,0.0425
1726.00,0.0425
1725.50,0.0425
1725.00,0.0425
1724.50,0.0425
1724.00,0.0426
1723.50,0.0426
1723.00,0.0426
1722.50,0.0426
1722.00,0.0426
1721.50,0.0426
1721.00,0.0426
1720.50,0.0426
1720.00,0.0426
1719.50,0.0427
1719.00,0.0427
1718.50,0.0426
1718.00,0.0426
1717.50,0.0425
1717.00,0.0426
1716.50,0.0426
1716.00,0.0426
1715.50,0.0426
1715.00,0.0426
1714.50,0.0426
1714.00,0.0426
1713.50,0.0426
1713.00,0.0426
1712.50,0.0426
1712.00,0.0426
1711.50,0.0426
1711.00,0.0426
1710.50,0.0426
1710.00,0.0426
1709.50,0.0426
1709.00,0.0426
1708.50,0.0426
1708.00,0.0426
1707.50,0.0426
1707.00,0.0426
1706.50,0.0426
1706.00,0.0426
1705.50,0.0426
1705.00,0.0426
1704.50,0.0426
1704.00,0.0426
1703.50,0.0426
1703.00,0.0426
1702.50,0.0426
1702.00,0.0426
1701.50,0.0426
1701.00,0.0427
1700.50,0.0425
1700.00,0.0424
1699.50,0.0426
1699.00,0.0427
1698.50,0.0427
1698.00,0.0427
1697.50,0.0427
1697.00,0.0427
1696.50,0.0427
1696.00,0.0427
1695.50,0.0427
1695.00,0.0428
1694.50,0.0428
1694.00,0.0428
1693.50,0.0428
1693.00,0.0428
1692.50,0.0428
1692.00,0.0428
1691.50,0.0429
1691.00,0.0429
1690.50,0.0429
1690.00,0.0429
1689.50,0.0429
1689.00,0.0429
1688.50,0.0430
1688.00,0.0430
1687.50,0.0430
1687.00,0.0430
1686.50,0.0430
1686.00,0.0430
1685.50,0.0431
1685.00,0.0431
1684.50,0.0431
1684.00,0.0432
1683.50,0.0432
1683.00,0.0432
1682.50,0.0432
1682.00,0.0433
1681.50,0.0433
1681.00,0.0433
1680.50,0.0434
1680.00,0.0434
1679.50,0.0434
1679.00,0.0434
1678.50,0.0435
1678.00,0.0435
1677.50,0.0435
1677.00,0.0435
1676.50,0.0436
1676.00,0.0436
1675.50,0.0436
1675.00,0.0437
1674.50,0.0437
1674.00,0.0438
1673.50,0.0438
1673.00,0.0439
1672.50,0.0439
1672.00,0.0439
1671.50,0.0440
1671.00,0.0440
1670.50,0.0440
1670.00,0.0440
1669.50,0.0441
1669.00,0.0442
1668.50,0.0442
1668.00,0.0443
1667.50,0.0444
1667.00,0.0444
1666.50,0.0444
1666.00,0.0445
1665.50,0.0445
1665.00,0.0446
1664.50,0.0446
1664.00,0.0446
1663.50,0.0447
1663.00,0.0447
1662.50,0.0448
1662.00,0.0448
1661.50,0.0449
1661.00,0.0450
1660.50,0.0450
1660.00,0.0450
1659.50,0.0451
1659.00,0.0451
1658.50,0.0452
1658.00,0.0452
1657.50,0.0453
1657.00,0.0453
1656.50,0.0454
1656.00,0.0454
1655.50,0.0454
1655.00,0.0455
1654.50,0.0456
1654.00,0.0456
1653.50,0.0456
1653.00,0.0455
1652.50,0.0457
1652.00,0.0458
1651.50,0.0459
1651.00,0.0459
1650.50,0.0459
1650.00,0.0459
1649.50,0.0460
1649.00,0.0460
1648.50,0.0461
1648.00,0.0461
1647.50,0.0461
1647.00,0.0461
1646.50,0.0461
1646.00,0.0462
1645.50,0.0462
1645.00,0.0463
1644.50,0.0464
1644.00,0.0464
1643.50,0.0464
1643.00,0.0465
1642.50,0.0465
1642.00,0.0465
1641.50,0.0466
1641.00,0.0466
1640.50,0.0466
1640.00,0.0467
1639.50,0.0467
1639.00,0.0468
1638.50,0.0468
1638.00,0.0469
1637.50,0.0469
1637.00,0.0469
1636.50,0.0469
1636.00,0.0469
1635.50,0.0469
1635.00,0.0470
1634.50,0.0471
1634.00,0.0471
1633.50,0.0472
1633.00,0.0472
1632.50,0.0472
1632.00,0.0473
1631.50,0.0473
1631.00,0.0474
1630.50,0.0474
1630.00,0.0475
1629.50,0.0475
1629.00,0.0475
1628.50,0.0476
1628.00,0.0477
1627.50,0.0477
1627.00,0.0477
1626.50,0.0478
1626.00,0.0478
1625.50,0.0479
1625.00,0.0480
1624.50,0.0480
1624.00,0.0481
1623.50,0.0482
1623.00,0.0482
1622.50,0.0483
1622.00,0.0483
1621.50,0.0484
1621.00,0.0484
1620.50,0.0485
1620.00,0.0485
1619.50,0.0486
1619.00,0.0487
1618.50,0.0487
1618.00,0.0487
1617.50,0.0488
1617.00,0.0488
1616.50,0.0489
1616.00,0.0491
1615.50,0.0491
1615.00,0.0492
1614.50,0.0492
1614.00,0.0493
1613.50,0.0493
1613.00,0.0494
1612.50,0.0494
1612.00,0.0495
1611.50,0.0495
1611.00,0.0496
1610.50,0.0496
1610.00,0.0497
1609.50,0.0497
1609.00,0.0498
1608.50,0.0498
1608.00,0.0498
1607.50,0.0499
1607.00,0.0500
1606.50,0.0500
1606.00,0.0501
1605.50,0.0501
1605.00,0.0502
1604.50,0.0503
1604.00,0.0503
1603.50,0.0505
1603.00,0.0506
1602.50,0.0507
1602.00,0.0508
1601.50,0.0510
1601.00,0.0513
1600.50,0.0515
1600.00,0.0519
1599.50,0.0523
1599.00,0.0527
1598.50,0.0532
1598.00,0.0536
1597.50,0.0539
1597.00,0.0541
1596.50,0.0541
1596.00,0.0538
1595.50,0.0535
1595.00,0.0530
1594.50,0.0524
1594.00,0.0519
1593.50,0.0515
1593.00,0.0512
1592.50,0.0509
1592.00,0.0507
1591.50,0.0505
1591.00,0.0503
1590.50,0.0502
1590.00,0.0500
1589.50,0.0499
1589.00,0.0498
1588.50,0.0497
1588.00,0.0496
1587.50,0.0495
1587.00,0.0494
1586.50,0.0493
1586.00,0.0492
1585.50,0.0492
1585.00,0.0491
1584.50,0.0490
1584.00,0.0490
1583.50,0.0489
1583.00,0.0488
1582.50,0.0488
1582.00,0.0487
1581.50,0.0486
1581.00,0.0486
1580.50,0.0485
1580.00,0.0485
1579.50,0.0484
1579.00,0.0484
1578.50,0.0483
1578.00,0.0482
1577.50,0.0482
1577.00,0.0481
1576.50,0.0481
1576.00,0.0479
1575.50,0.0479
1575.00,0.0479
1574.50,0.0478
1574.00,0.0477
1573.50,0.0477
1573.00,0.0476
1572.50,0.0476
1572.00,0.0475
1571.50,0.0475
1571.00,0.0474
1570.50,0.0474
1570.00,0.0474
1569.50,0.0473
1569.00,0.0472
1568.50,0.0471
1568.00,0.0471
1567.50,0.0471
1567.00,0.0470
1566.50,0.0470
1566.00,0.0470
1565.50,0.0470
1565.00,0.0470
1564.50,0.0469
1564.00,0.0469
1563.50,0.0469
1563.00,0.0468
1562.50,0.0468
1562.00,0.0468
1561.50,0.0468
1561.00,0.0468
1560.50,0.0469
1560.00,0.0469
1559.50,0.0468
1559.00,0.0468
1558.50,0.0467
1558.00,0.0467
1557.50,0.0468
1557.00,0.0468
1556.50,0.0467
1556.00,0.0467
1555.50,0.0467
1555.00,0.0467
1554.50,0.0466
1554.00,0.0466
1553.50,0.0466
1553.00,0.0466
1552.50,0.0466
1552.00,0.0466
1551.50,0.0466
1551.00,0.0466
1550.50,0.0466
1550.00,0.0466
1549.50,0.0466
1549.00,0.0466
1548.50,0.0466
1548.00,0.0466
1547.50,0.0466
1547.00,0.0466
1546.50,0.0466
1546.00,0.0466
1545.50,0.0466
1545.00,0.0466
1544.50,0.0466
1544.00,0.0466
1543.50,0.0466
1543.00,0.0467
1542.50,0.0467
1542.00,0.0467
1541.50,0.0467
1541.00,0.0468
1540.50,0.0468
1540.00,0.0469
1539.50,0.0468
1539.00,0.0469
1538.50,0.0469
1538.00,0.0469
1537.50,0.0468
1537.00,0.0468
1536.50,0.0468
1536.00,0.0468
1535.50,0.0468
1535.00,0.0468
1534.50,0.0469
1534.00,0.0469
1533.50,0.0469
1533.00,0.0469
1532.50,0.0469
1532.00,0.0469
1531.50,0.0469
1531.00,0.0469
1530.50,0.0469
1530.00,0.0469
1529.50,0.0470
1529.00,0.0470
1528.50,0.0470
1528.00,0.0470
1527.50,0.0470
1527.00,0.0470
1526.50,0.0470
1526.00,0.0470
1525.50,0.0470
1525.00,0.0470
1524.50,0.0470
1524.00,0.0470
1523.50,0.0471
1523.00,0.0471
1522.50,0.0471
1522.00,0.0470
1521.50,0.0470
1521.00,0.0470
1520.50,0.0470
1520.00,0.0470
1519.50,0.0470
1519.00,0.0470
1518.50,0.0470
1518.00,0.0470
1517.50,0.0471
1517.00,0.0471
1516.50,0.0470
1516.00,0.0470
1515.50,0.0469
1515.00,0.0469
1514.50,0.0469
1514.00,0.0469
1513.50,0.0469
1513.00,0.0470
1512.50,0.0470
1512.00,0.0469
1511.50,0.0469
1511.00,0.0469
1510.50,0.0470
1510.00,0.0470
1509.50,0.0470
1509.00,0.0470
1508.50,0.0471
1508.00,0.0471
1507.50,0.0471
1507.00,0.0471
1506.50,0.0470
1506.00,0.0470
1505.50,0.0470
1505.00,0.0471
1504.50,0.0471
1504.00,0.0471
1503.50,0.0471
1503.00,0.0471
1502.50,0.0471
1502.00,0.0471
1501.50,0.0471
1501.00,0.0472
1500.50,0.0472
1500.00,0.0472
1499.50,0.0473
1499.00,0.0473
1498.50,0.0474
1498.00,0.0474
1497.50,0.0474
1497.00,0.0475
1496.50,0.0476
1496.00,0.0476
1495.50,0.0477
1495.00,0.0477
1494.50,0.0477
1494.00,0.0478
1493.50,0.0479
1493.00,0.0480
1492.50,0.0481
1492.00,0.0481
1491.50,0.0482
1491.00,0.0483
1490.50,0.0484
1490.00,0.0486
1489.50,0.0489
1489.00,0.0491
1488.50,0.0492
1488.00,0.0493
1487.50,0.0494
1487.00,0.0495
1486.50,0.0496
1486.00,0.0496
1485.50,0.0497
1485.00,0.0499
1484.50,0.0500
1484.00,0.0501
1483.50,0.0502
1483.00,0.0503
1482.50,0.0504
1482.00,0.0504
1481.50,0.0505
1481.00,0.0505
1480.50,0.0506
1480.00,0.0506
1479.50,0.0506
1479.00,0.0507
1478.50,0.0507
1478.00,0.0507
1477.50,0.0507
1477.00,0.0508
1476.50,0.0508
1476.00,0.0509
1475.50,0.0509
1475.00,0.0510
1474.50,0.0510
1474.00,0.0511
1473.50,0.0512
1473.00,0.0514
1472.50,0.0515
1472.00,0.0517
1471.50,0.0519
1471.00,0.0520
1470.50,0.0522
1470.00,0.0524
1469.50,0.0527
1469.00,0.0529
1468.50,0.0532
1468.00,0.0535
1467.50,0.0538
1467.00,0.0541
1466.50,0.0544
1466.00,0.0547
1465.50,0.0550
1465.00,0.0555
1464.50,0.0559
1464.00,0.0564
1463.50,0.0568
1463.00,0.0572
1462.50,0.0576
1462.00,0.0581
1461.50,0.0586
1461.00,0.0592
1460.50,0.0596
1460.00,0.0601
1459.50,0.0607
1459.00,0.0612
1458.50,0.0617
1458.00,0.0622
1457.50,0.0628
1457.00,0.0634
1456.50,0.0640
1456.00,0.0646
1455.50,0.0650
1455.00,0.0655
1454.50,0.0661
1454.00,0.0666
1453.50,0.0672
1453.00,0.0679
1452.50,0.0686
1452.00,0.0693
1451.50,0.0700
1451.00,0.0708
1450.50,0.0715
1450.00,0.0722
1449.50,0.0729
1449.00,0.0736
1448.50,0.0743
1448.00,0.0749
1447.50,0.0755
1447.00,0.0759
1446.50,0.0762
1446.00,0.0764
1445.50,0.0765
1445.00,0.0765
1444.50,0.0764
1444.00,0.0762
1443.50,0.0759
1443.00,0.0756
1442.50,0.0751
1442.00,0.0746
1441.50,0.0740
1441.00,0.0735
1440.50,0.0729
1440.00,0.0723
1439.50,0.0717
1439.00,0.0712
1438.50,0.0707
1438.00,0.0703
1437.50,0.0699
1437.00,0.0694
1436.50,0.0687
1436.00,0.0683
1435.50,0.0681
1435.00,0.0680
1434.50,0.0680
1434.00,0.0679
1433.50,0.0679
1433.00,0.0679
1432.50,0.0680
1432.00,0.0681
1431.50,0.0683
1431.00,0.0686
1430.50,0.0690
1430.00,0.0695
1429.50,0.0700
1429.00,0.0706
1428.50,0.0712
1428.00,0.0719
1427.50,0.0727
1427.00,0.0736
1426.50,0.0746
1426.00,0.0757
1425.50,0.0769
1425.00,0.0782
1424.50,0.0797
1424.00,0.0815
1423.50,0.0834
1423.00,0.0854
1422.50,0.0872
1422.00,0.0892
1421.50,0.0913
1421.00,0.0932
1420.50,0.0952
1420.00,0.0977
1419.50,0.1010
1419.00,0.1045
1418.50,0.1071
1418.00,0.1091
1417.50,0.1111
1417.00,0.1132
1416.50,0.1153
1416.00,0.1171
1415.50,0.1188
1415.00,0.1203
1414.50,0.1216
1414.00,0.1226
1413.50,0.1235
1413.00,0.1241
1412.50,0.1245
1412.00,0.1248
1411.50,0.1248
1411.00,0.1247
1410.50,0.1245
1410.00,0.1241
1409.50,0.1236
1409.00,0.1230
1408.50,0.1222
1408.00,0.1213
1407.50,0.1204
1407.00,0.1194
1406.50,0.1184
1406.00,0.1174
1405.50,0.1163
1405.00,0.1151
1404.50,0.1140
1404.00,0.1130
1403.50,0.1122
1403.00,0.1115
1402.50,0.1108
1402.00,0.1101
1401.50,0.1093
1401.00,0.1086
1400.50,0.1078
1400.00,0.1069
1399.50,0.1056
1399.00,0.1040
1398.50,0.1023
1398.00,0.1007
1397.50,0.0991
1397.00,0.0974
1396.50,0.0956
1396.00,0.0938
1395.50,0.0919
1395.00,0.0897
1394.50,0.0874
1394.00,0.0853
1393.50,0.0836
1393.00,0.0821
1392.50,0.0808
1392.00,0.0795
1391.50,0.0781
1391.00,0.0769
1390.50,0.0757
1390.00,0.0747
1389.50,0.0738
1389.00,0.0730
1388.50,0.0723
1388.00,0.0716
1387.50,0.0708
1387.00,0.0700
1386.50,0.0695
1386.00,0.0690
1385.50,0.0686
1385.00,0.0682
1384.50,0.0678
1384.00,0.0675
1383.50,0.0671
1383.00,0.0667
1382.50,0.0663
1382.00,0.0660
1381.50,0.0656
1381.00,0.0653
1380.50,0.0650
1380.00,0.0647
1379.50,0.0645
1379.00,0.0642
1378.50,0.0640
1378.00,0.0639
1377.50,0.0637
1377.00,0.0636
1376.50,0.0635
1376.00,0.0634
1375.50,0.0634
1375.00,0.0633
1374.50,0.0632
1374.00,0.0632
1373.50,0.0632
1373.00,0.0631
1372.50,0.0631
1372.00,0.0631
1371.50,0.0630
1371.00,0.0628
1370.50,0.0627
1370.00,0.0625
1369.50,0.0623
1369.00,0.0621
1368.50,0.0619
1368.00,0.0618
1367.50,0.0616
1367.00,0.0615
1366.50,0.0614
1366.00,0.0614
1365.50,0.0613
1365.00,0.0612
1364.50,0.0612
1364.00,0.0612
1363.50,0.0611
1363.00,0.0610
1362.50,0.0610
1362.00,0.0609
1361.50,0.0609
1361.00,0.0608
1360.50,0.0608
1360.00,0.0608
1359.50,0.0608
1359.00,0.0608
1358.50,0.0608
1358.00,0.0608
1357.50,0.0607
1357.00,0.0607
1356.50,0.0607
1356.00,0.0607
1355.50,0.0607
1355.00,0.0607
1354.50,0.0608
1354.00,0.0608
1353.50,0.0608
1353.00,0.0608
1352.50,0.0608
1352.00,0.0609
1351.50,0.0609
1351.00,0.0610
1350.50,0.0610
1350.00,0.0611
1349.50,0.0611
1349.00,0.0612
1348.50,0.0612
1348.00,0.0613
1347.50,0.0614
1347.00,0.0614
1346.50,0.0614
1346.00,0.0615
1345.50,0.0616
1345.00,0.0616
1344.50,0.0617
1344.00,0.0617
1343.50,0.0617
1343.00,0.0617
1342.50,0.0618
1342.00,0.0618
1341.50,0.0619
1341.00,0.0619
1340.50,0.0619
1340.00,0.0619
1339.50,0.0619
1339.00,0.0619
1338.50,0.0620
1338.00,0.0621
1337.50,0.0621
1337.00,0.0622
1336.50,0.0623
1336.00,0.0624
1335.50,0.0625
1335.00,0.0626
1334.50,0.0627
1334.00,0.0629
1333.50,0.0630
1333.00,0.0632
1332.50,0.0633
1332.00,0.0635
1331.50,0.0636
1331.00,0.0638
1330.50,0.0640
1330.00,0.0642
1329.50,0.0644
1329.00,0.0646
1328.50,0.0648
1328.00,0.0650
1327.50,0.0652
1327.00,0.0654
1326.50,0.0656
1326.00,0.0659
1325.50,0.0661
1325.00,0.0663
1324.50,0.0666
1324.00,0.0669
1323.50,0.0671
1323.00,0.0674
1322.50,0.0677
1322.00,0.0680
1321.50,0.0683
1321.00,0.0686
1320.50,0.0689
1320.00,0.0692
1319.50,0.0696
1319.00,0.0699
1318.50,0.0702
1318.00,0.0705
1317.50,0.0709
1317.00,0.0712
1316.50,0.0716
1316.00,0.0719
1315.50,0.0723
1315.00,0.0727
1314.50,0.0731
1314.00,0.0735
1313.50,0.0738
1313.00,0.0743
1312.50,0.0747
1312.00,0.0751
1311.50,0.0755
1311.00,0.0760
1310.50,0.0764
1310.00,0.0768
1309.50,0.0773
1309.00,0.0777
1308.50,0.0782
1308.00,0.0787
1307.50,0.0791
1307.00,0.0796
1306.50,0.0801
1306.00,0.0806
1305.50,0.0811
1305.00,0.0816
1304.50,0.0821
1304.00,0.0827
1303.50,0.0832
1303.00,0.0838
1302.50,0.0843
1302.00,0.0849
1301.50,0.0855
1301.00,0.0861
1300.50,0.0868
1300.00,0.0875
1299.50,0.0882
1299.00,0.0889
1298.50,0.0896
1298.00,0.0904
1297.50,0.0911
1297.00,0.0920
1296.50,0.0928
1296.00,0.0937
1295.50,0.0946
1295.00,0.0955
1294.50,0.0964
1294.00,0.0974
1293.50,0.0984
1293.00,0.0995
1292.50,0.1006
1292.00,0.1017
1291.50,0.1028
1291.00,0.1040
1290.50,0.1052
1290.00,0.1065
1289.50,0.1078
1289.00,0.1092
1288.50,0.1106
1288.00,0.1121
1287.50,0.1137
1287.00,0.1153
1286.50,0.1170
1286.00,0.1188
1285.50,0.1207
1285.00,0.1226
1284.50,0.1248
1284.00,0.1270
1283.50,0.1294
1283.00,0.1319
1282.50,0.1346
1282.00,0.1375
1281.50,0.1406
1281.00,0.1440
1280.50,0.1476
1280.00,0.1515
1279.50,0.1558
1279.00,0.1604
1278.50,0.1654
1278.00,0.1709
1277.50,0.1770
1277.00,0.1836
1276.50,0.1909
1276.00,0.1990
1275.50,0.2079
1275.00,0.2178
1274.50,0.2288
1274.00,0.2411
1273.50,0.2548
1273.00,0.2702
1272.50,0.2878
1272.00,0.3079
1271.50,0.3309
1271.00,0.3572
1270.50,0.3872
1270.00,0.4216
1269.50,0.4611
1269.00,0.5060
1268.50,0.5566
1268.00,0.6128
1267.50,0.6742
1267.00,0.7403
1266.50,0.8094
1266.00,0.8796
1265.50,0.9492
1265.00,1.0162
1264.50,1.0778
1264.00,1.1317
1263.50,1.1777
1263.00,1.2149
1262.50,1.2414
1262.00,1.2566
1261.50,1.2625
1261.00,1.2602
1260.50,1.2487
1260.00,1.2287
1259.50,1.2028
1259.00,1.1725
1258.50,1.1370
1258.00,1.0973
1257.50,1.0557
1257.00,1.0135
1256.50,0.9707
1256.00,0.9281
1255.50,0.8872
1255.00,0.8480
1254.50,0.8098
1254.00,0.7718
1253.50,0.7342
1253.00,0.6965
1252.50,0.6577
1252.00,0.6181
1251.50,0.5783
1251.00,0.5389
1250.50,0.5006
1250.00,0.4641
1249.50,0.4302
1249.00,0.3992
1248.50,0.3711
1248.00,0.3458
1247.50,0.3235
1247.00,0.3038
1246.50,0.2864
1246.00,0.2712
1245.50,0.2579
1245.00,0.2462
1244.50,0.2359
1244.00,0.2267
1243.50,0.2186
1243.00,0.2114
1242.50,0.2050
1242.00,0.1993
1241.50,0.1942
1241.00,0.1897
1240.50,0.1857
1240.00,0.1821
1239.50,0.1788
1239.00,0.1760
1238.50,0.1734
1238.00,0.1711
1237.50,0.1690
1237.00,0.1672
1236.50,0.1656
1236.00,0.1642
1235.50,0.1629
1235.00,0.1619
1234.50,0.1611
1234.00,0.1603
1233.50,0.1597
1233.00,0.1593
1232.50,0.1589
1232.00,0.1587
1231.50,0.1586
1231.00,0.1587
1230.50,0.1588
1230.00,0.1590
1229.50,0.1593
1229.00,0.1598
1228.50,0.1603
1228.00,0.1609
1227.50,0.1617
1227.00,0.1625
1226.50,0.1634
1226.00,0.1644
1225.50,0.1654
1225.00,0.1666
1224.50,0.1678
1224.00,0.1691
1223.50,0.1705
1223.00,0.1720
1222.50,0.1735
1222.00,0.1751
1221.50,0.1768
1221.00,0.1786
1220.50,0.1804
1220.00,0.1822
1219.50,0.1841
1219.00,0.1862
1218.50,0.1882
1218.00,0.1903
1217.50,0.1925
1217.00,0.1947
1216.50,0.1970
1216.00,0.1992
1215.50,0.2015
1215.00,0.2039
1214.50,0.2062
1214.00,0.2086
1213.50,0.2110
1213.00,0.2134
1212.50,0.2159
1212.00,0.2184
1211.50,0.2208
1211.00,0.2233
1210.50,0.2258
1210.00,0.2282
1209.50,0.2307
1209.00,0.2332
1208.50,0.2356
1208.00,0.2380
1207.50,0.2403
1207.00,0.2428
1206.50,0.2451
1206.00,0.2475
1205.50,0.2498
1205.00,0.2521
1204.50,0.2543
1204.00,0.2565
1203.50,0.2586
1203.00,0.2607
1202.50,0.2628
1202.00,0.2648
1201.50,0.2668
1201.00,0.2688
1200.50,0.2707
1200.00,0.2726
1199.50,0.2744
1199.00,0.2763
1198.50,0.2780
1198.00,0.2797
1197.50,0.2814
1197.00,0.2831
1196.50,0.2847
1196.00,0.2862
1195.50,0.2877
1195.00,0.2892
1194.50,0.2907
1194.00,0.2921
1193.50,0.2934
1193.00,0.2949
1192.50,0.2962
1192.00,0.2975
1191.50,0.2988
1191.00,0.3000
1190.50,0.3011
1190.00,0.3022
1189.50,0.3033
1189.00,0.3044
1188.50,0.3055
1188.00,0.3065
1187.50,0.3076
1187.00,0.3086
1186.50,0.3097
1186.00,0.3106
1185.50,0.3116
1185.00,0.3126
1184.50,0.3136
1184.00,0.3145
1183.50,0.3154
1183.00,0.3164
1182.50,0.3173
1182.00,0.3182
1181.50,0.3192
1181.00,0.3202
1180.50,0.3212
1180.00,0.3221
1179.50,0.3231
1179.00,0.3241
1178.50,0.3251
1178.00,0.3261
1177.50,0.3271
1177.00,0.3282
1176.50,0.3293
1176.00,0.3304
1175.50,0.3315
1175.00,0.3326
1174.50,0.3338
1174.00,0.3349
1173.50,0.3360
1173.00,0.3372
1172.50,0.3383
1172.00,0.3394
1171.50,0.3405
1171.00,0.3417
1170.50,0.3428
1170.00,0.3439
1169.50,0.3450
1169.00,0.3462
1168.50,0.3475
1168.00,0.3487
1167.50,0.3499
1167.00,0.3513
1166.50,0.3526
1166.00,0.3539
1165.50,0.3553
1165.00,0.3568
1164.50,0.3584
1164.00,0.3599
1163.50,0.3614
1163.00,0.3631
1162.50,0.3647
1162.00,0.3664
1161.50,0.3681
1161.00,0.3699
1160.50,0.3717
1160.00,0.3735
1159.50,0.3755
1159.00,0.3775
1158.50,0.3795
1158.00,0.3816
1157.50,0.3837
1157.00,0.3859
1156.50,0.3882
1156.00,0.3905
1155.50,0.3929
1155.00,0.3954
1154.50,0.3979
1154.00,0.4004
1153.50,0.4031
1153.00,0.4059
1152.50,0.4087
1152.00,0.4115
1151.50,0.4144
1151.00,0.4176
1150.50,0.4207
1150.00,0.4239
1149.50,0.4271
1149.00,0.4306
1148.50,0.4341
1148.00,0.4376
1147.50,0.4413
1147.00,0.4451
1146.50,0.4491
1146.00,0.4530
1145.50,0.4571
1145.00,0.4615
1144.50,0.4659
1144.00,0.4704
1143.50,0.4751
1143.00,0.4799
1142.50,0.4849
1142.00,0.4899
1141.50,0.4951
1141.00,0.5006
1140.50,0.5062
1140.00,0.5119
1139.50,0.5178
1139.00,0.5239
1138.50,0.5302
1138.00,0.5365
1137.50,0.5430
1137.00,0.5498
1136.50,0.5567
1136.00,0.5637
1135.50,0.5710
1135.00,0.5787
1134.50,0.5865
1134.00,0.5945
1133.50,0.6028
1133.00,0.6116
1132.50,0.6205
1132.00,0.6296
1131.50,0.6390
1131.00,0.6489
1130.50,0.6591
1130.00,0.6694
1129.50,0.6802
1129.00,0.6915
1128.50,0.7029
1128.00,0.7146
1127.50,0.7267
1127.00,0.7393
1126.50,0.7522
1126.00,0.7652
1125.50,0.7787
1125.00,0.7928
1124.50,0.8071
1124.00,0.8214
1123.50,0.8362
1123.00,0.8516
1122.50,0.8672
1122.00,0.8828
1121.50,0.8990
1121.00,0.9158
1120.50,0.9326
1120.00,0.9492
1119.50,0.9663
1119.00,0.9841
1118.50,1.0018
1118.00,1.0193
1117.50,1.0373
1117.00,1.0559
1116.50,1.0744
1116.00,1.0924
1115.50,1.1107
1115.00,1.1297
1114.50,1.1483
1114.00,1.1662
1113.50,1.1844
1113.00,1.2034
1112.50,1.2219
1112.00,1.2396
1111.50,1.2577
1111.00,1.2765
1110.50,1.2946
1110.00,1.3117
1109.50,1.3292
1109.00,1.3473
1108.50,1.3645
1108.00,1.3803
1107.50,1.3966
1107.00,1.4139
1106.50,1.4301
1106.00,1.4448
1105.50,1.4597
1105.00,1.4757
1104.50,1.4906
1104.00,1.5038
1103.50,1.5177
1103.00,1.5326
1102.50,1.5459
1102.00,1.5569
1101.50,1.5686
1101.00,1.5816
1100.50,1.5931
1100.00,1.6022
1099.50,1.6119
1099.00,1.6230
1098.50,1.6327
1098.00,1.6403
1097.50,1.6489
1097.00,1.6589
1096.50,1.6667
1096.00,1.6713
1095.50,1.6768
1095.00,1.6843
1094.50,1.6902
1094.00,1.6934
1093.50,1.6977
1093.00,1.7038
1092.50,1.7078
1092.00,1.7089
1091.50,1.7111
1091.00,1.7155
1090.50,1.7179
1090.00,1.7172
1089.50,1.7175
1089.00,1.7198
1088.50,1.7205
1088.00,1.7187
1087.50,1.7184
1087.00,1.7203
1086.50,1.7203
1086.00,1.7171
1085.50,1.7148
1085.00,1.7145
1084.50,1.7128
1084.00,1.7086
1083.50,1.7056
1083.00,1.7046
1082.50,1.7019
1082.00,1.6969
1081.50,1.6932
1081.00,1.6913
1080.50,1.6878
1080.00,1.6818
1079.50,1.6769
1079.00,1.6742
1078.50,1.6700
1078.00,1.6637
1077.50,1.6585
1077.00,1.6553
1076.50,1.6506
1076.00,1.6437
1075.50,1.6379
1075.00,1.6340
1074.50,1.6290
1074.00,1.6222
1073.50,1.6165
1073.00,1.6124
1072.50,1.6070
1072.00,1.5999
1071.50,1.5939
1071.00,1.5898
1070.50,1.5847
1070.00,1.5781
1069.50,1.5725
1069.00,1.5686
1068.50,1.5634
1068.00,1.5563
1067.50,1.5500
1067.00,1.5453
1066.50,1.5397
1066.00,1.5329
1065.50,1.5270
1065.00,1.5226
1064.50,1.5173
1064.00,1.5108
1063.50,1.5053
1063.00,1.5013
1062.50,1.4962
1062.00,1.4896
1061.50,1.4837
1061.00,1.4792
1060.50,1.4739
1060.00,1.4675
1059.50,1.4619
1059.00,1.4575
1058.50,1.4525
1058.00,1.4463
1057.50,1.4409
1057.00,1.4369
1056.50,1.4322
1056.00,1.4264
1055.50,1.4215
1055.00,1.4180
1054.50,1.4139
1054.00,1.4086
1053.50,1.4039
1053.00,1.4004
1052.50,1.3965
1052.00,1.3916
1051.50,1.3876
1051.00,1.3848
1050.50,1.3814
1050.00,1.3768
1049.50,1.3733
1049.00,1.3713
1048.50,1.3687
1048.00,1.3653
1047.50,1.3626
1047.00,1.3611
1046.50,1.3591
1046.00,1.3565
1045.50,1.3548
1045.00,1.3543
1044.50,1.3535
1044.00,1.3519
1043.50,1.3513
1043.00,1.3520
1042.50,1.3521
1042.00,1.3510
1041.50,1.3503
1041.00,1.3509
1040.50,1.3514
1040.00,1.3514
1039.50,1.3520
1039.00,1.3536
1038.50,1.3547
1038.00,1.3550
1037.50,1.3559
1037.00,1.3578
1036.50,1.3594
1036.00,1.3603
1035.50,1.3619
1035.00,1.3647
1034.50,1.3671
1034.00,1.3685
1033.50,1.3704
1033.00,1.3733
1032.50,1.3760
1032.00,1.3780
1031.50,1.3805
1031.00,1.3839
1030.50,1.3867
1030.00,1.3887
1029.50,1.3913
1029.00,1.3951
1028.50,1.3983
1028.00,1.4006
1027.50,1.4033
1027.00,1.4070
1026.50,1.4101
1026.00,1.4123
1025.50,1.4147
1025.00,1.4177
1024.50,1.4199
1024.00,1.4209
1023.50,1.4223
1023.00,1.4245
1022.50,1.4259
1022.00,1.4259
1021.50,1.4259
1021.00,1.4261
1020.50,1.4252
1020.00,1.4226
1019.50,1.4198
1019.00,1.4171
1018.50,1.4129
1018.00,1.4069
1017.50,1.4003
1017.00,1.3934
1016.50,1.3847
1016.00,1.3737
1015.50,1.3616
1015.00,1.3488
1014.50,1.3343
1014.00,1.3179
1013.50,1.3008
1013.00,1.2832
1012.50,1.2642
1012.00,1.2437
1011.50,1.2227
1011.00,1.2015
1010.50,1.1795
1010.00,1.1567
1009.50,1.1341
1009.00,1.1118
1008.50,1.0895
1008.00,1.0672
1007.50,1.0454
1007.00,1.0244
1006.50,1.0036
1006.00,0.9831
1005.50,0.9634
1005.00,0.9447
1004.50,0.9265
1004.00,0.9088
1003.50,0.8919
1003.00,0.8759
1002.50,0.8604
1002.00,0.8455
1001.50,0.8315
1001.00,0.8185
1000.50,0.8061
1000.00,0.7941
999.50,0.7829
999.00,0.7724
998.50,0.7625
998.00,0.7531
997.50,0.7443
997.00,0.7362
996.50,0.7285
996.00,0.7212
995.50,0.7144
995.00,0.7081
994.50,0.7022
994.00,0.6966
993.50,0.6914
993.00,0.6867
992.50,0.6822
992.00,0.6779
991.50,0.6739
991.00,0.6704
990.50,0.6670
990.00,0.6637
989.50,0.6608
989.00,0.6581
988.50,0.6556
988.00,0.6533
987.50,0.6512
987.00,0.6493
986.50,0.6476
986.00,0.6460
985.50,0.6446
985.00,0.6434
984.50,0.6423
984.00,0.6413
983.50,0.6405
983.00,0.6398
982.50,0.6393
982.00,0.6387
981.50,0.6384
981.00,0.6382
980.50,0.6382
980.00,0.6381
979.50,0.6381
979.00,0.6384
978.50,0.6388
978.00,0.6391
977.50,0.6395
977.00,0.6403
976.50,0.6410
976.00,0.6417
975.50,0.6425
975.00,0.6435
974.50,0.6445
974.00,0.6454
973.50,0.6466
973.00,0.6479
972.50,0.6492
972.00,0.6506
971.50,0.6520
971.00,0.6537
970.50,0.6553
970.00,0.6568
969.50,0.6585
969.00,0.6603
968.50,0.6622
968.00,0.6640
967.50,0.6660
967.00,0.6681
966.50,0.6703
966.00,0.6724
965.50,0.6745
965.00,0.6769
964.50,0.6792
964.00,0.6815
963.50,0.6840
963.00,0.6865
962.50,0.6891
962.00,0.6917
961.50,0.6944
961.00,0.6973
960.50,0.7000
960.00,0.7027
959.50,0.7054
959.00,0.7083
958.50,0.7112
958.00,0.7140
957.50,0.7169
957.00,0.7198
956.50,0.7226
956.00,0.7252
955.50,0.7278
955.00,0.7306
954.50,0.7332
954.00,0.7356
953.50,0.7381
953.00,0.7406
952.50,0.7431
952.00,0.7454
951.50,0.7479
951.00,0.7505
950.50,0.7531
950.00,0.7557
949.50,0.7584
949.00,0.7614
948.50,0.7644
948.00,0.7672
947.50,0.7703
947.00,0.7735
946.50,0.7767
946.00,0.7799
945.50,0.7832
945.00,0.7867
944.50,0.7902
944.00,0.7937
943.50,0.7973
943.00,0.8010
942.50,0.8047
942.00,0.8083
941.50,0.8120
941.00,0.8160
940.50,0.8200
940.00,0.8239
939.50,0.8279
939.00,0.8320
938.50,0.8361
938.00,0.8401
937.50,0.8443
937.00,0.8486
936.50,0.8530
936.00,0.8572
935.50,0.8615
935.00,0.8662
934.50,0.8709
934.00,0.8753
933.50,0.8799
933.00,0.8847
932.50,0.8896
932.00,0.8945
931.50,0.8995
931.00,0.9047
930.50,0.9099
930.00,0.9149
929.50,0.9199
929.00,0.9252
928.50,0.9304
928.00,0.9355
927.50,0.9408
927.00,0.9464
926.50,0.9519
926.00,0.9572
925.50,0.9625
925.00,0.9681
924.50,0.9736
924.00,0.9789
923.50,0.9844
923.00,0.9904
922.50,0.9964
922.00,1.0023
921.50,1.0086
921.00,1.0152
920.50,1.0219
920.00,1.0284
919.50,1.0350
919.00,1.0421
918.50,1.0491
918.00,1.0558
917.50,1.0626
917.00,1.0697
916.50,1.0764
916.00,1.0827
915.50,1.0891
915.00,1.0958
914.50,1.1022
914.00,1.1082
913.50,1.1141
913.00,1.1202
912.50,1.1259
912.00,1.1312
911.50,1.1365
911.00,1.1420
910.50,1.1473
910.00,1.1521
909.50,1.1569
909.00,1.1621
908.50,1.1671
908.00,1.1717
907.50,1.1765
907.00,1.1817
906.50,1.1867
906.00,1.1914
905.50,1.1964
905.00,1.2021
904.50,1.2079
904.00,1.2133
903.50,1.2190
903.00,1.2253
902.50,1.2316
902.00,1.2376
901.50,1.2440
901.00,1.2511
900.50,1.2581
900.00,1.2648
899.50,1.2717
899.00,1.2794
898.50,1.2872
898.00,1.2945
897.50,1.3022
897.00,1.3105
896.50,1.3186
896.00,1.3259
895.50,1.3333
895.00,1.3413
894.50,1.3490
894.00,1.3563
893.50,1.3641
893.00,1.3726
892.50,1.3809
892.00,1.3886
891.50,1.3966
891.00,1.4053
890.50,1.4137
890.00,1.4215
889.50,1.4300
889.00,1.4396
888.50,1.4490
888.00,1.4575
887.50,1.4665
887.00,1.4768
886.50,1.4871
886.00,1.4967
885.50,1.5068
885.00,1.5183
884.50,1.5297
884.00,1.5404
883.50,1.5515
883.00,1.5638
882.50,1.5759
882.00,1.5871
881.50,1.5990
881.00,1.6124
880.50,1.6254
880.00,1.6370
879.50,1.6493
879.00,1.6633
878.50,1.6771
878.00,1.6898
877.50,1.7036
877.00,1.7194
876.50,1.7349
876.00,1.7484
875.50,1.7622
875.00,1.7781
874.50,1.7939
874.00,1.8084
873.50,1.8238
873.00,1.8412
872.50,1.8571
872.00,1.8698
871.50,1.8828
871.00,1.8983
870.50,1.9132
870.00,1.9254
869.50,1.9377
869.00,1.9516
868.50,1.9633
868.00,1.9705
867.50,1.9775
867.00,1.9872
866.50,1.9958
866.00,2.0004
865.50,2.0044
865.00,2.0102
864.50,2.0152
864.00,2.0177
863.50,2.0212
863.00,2.0268
862.50,2.0307
862.00,2.0315
861.50,2.0331
861.00,2.0372
860.50,2.0401
860.00,2.0407
859.50,2.0437
859.00,2.0507
858.50,2.0567
858.00,2.0592
857.50,2.0626
857.00,2.0695
856.50,2.0764
856.00,2.0815
855.50,2.0893
855.00,2.1013
854.50,2.1115
854.00,2.1173
853.50,2.1238
853.00,2.1346
852.50,2.1454
852.00,2.1531
851.50,2.1625
851.00,2.1773
850.50,2.1944
850.00,2.2111
849.50,2.2294
849.00,2.2460
848.50,2.2521
848.00,2.2486
847.50,2.2482
847.00,2.2563
846.50,2.2644
846.00,2.2668
845.50,2.2704
845.00,2.2788
844.50,2.2845
844.00,2.2839
843.50,2.2847
843.00,2.2902
842.50,2.2928
842.00,2.2892
841.50,2.2881
841.00,2.2938
840.50,2.2984
840.00,2.2974
839.50,2.2984
839.00,2.3058
838.50,2.3119
838.00,2.3126
837.50,2.3153
837.00,2.3239
836.50,2.3293
836.00,2.3270
835.50,2.3263
835.00,2.3323
834.50,2.3369
834.00,2.3353
833.50,2.3364
833.00,2.3458
832.50,2.3551
832.00,2.3584
831.50,2.3635
831.00,2.3750
830.50,2.3828
830.00,2.3809
829.50,2.3808
829.00,2.3901
828.50,2.3986
828.00,2.3997
827.50,2.4050
827.00,2.4219
826.50,2.4380
826.00,2.4429
825.50,2.4473
825.00,2.4588
824.50,2.4635
824.00,2.4553
823.50,2.4518
823.00,2.4626
822.50,2.4734
822.00,2.4743
821.50,2.4771
821.00,2.4889
820.50,2.4965
820.00,2.4928
819.50,2.4906
819.00,2.4963
818.50,2.4983
818.00,2.4907
817.50,2.4866
817.00,2.4935
816.50,2.4998
816.00,2.4979
815.50,2.4979
815.00,2.5039
814.50,2.5041
814.00,2.4947
813.50,2.4914
813.00,2.5018
812.50,2.5119
812.00,2.5103
811.50,2.5078
811.00,2.5134
810.50,2.5173
810.00,2.5119
809.50,2.5075
809.00,2.5109
808.50,2.5131
808.00,2.5082
807.50,2.5056
807.00,2.5090
806.50,2.5080
806.00,2.4991
805.50,2.4960
805.00,2.5048
804.50,2.5123
804.00,2.5100
803.50,2.5079
803.00,2.5129
802.50,2.5153
802.00,2.5080
801.50,2.5012
801.00,2.5033
800.50,2.5072
800.00,2.5070
799.50,2.5104
799.00,2.5202
798.50,2.5244
798.00,2.5166
797.50,2.5089
797.00,2.5093
796.50,2.5094
796.00,2.5045
795.50,2.5040
795.00,2.5122
794.50,2.5173
794.00,2.5119
793.50,2.5065
793.00,2.5091
792.50,2.5116
792.00,2.5093
791.50,2.5115
791.00,2.5218
790.50,2.5275
790.00,2.5211
789.50,2.5143
789.00,2.5163
788.50,2.5184
788.00,2.5140
787.50,2.5118
787.00,2.5174
786.50,2.5203
786.00,2.5136
785.50,2.5079
785.00,2.5112
784.50,2.5155
784.00,2.5139
783.50,2.5129
783.00,2.5178
782.50,2.5212
782.00,2.5192
781.50,2.5200
781.00,2.5267
780.50,2.5281
780.00,2.5191
779.50,2.5125
779.00,2.5170
778.50,2.5245
778.00,2.5270
777.50,2.5293
777.00,2.5344
776.50,2.5349
776.00,2.5281
775.50,2.5241
775.00,2.5269
774.50,2.5270
774.00,2.5205
773.50,2.5183
773.00,2.5244
772.50,2.5272
772.00,2.5207
771.50,2.5168
771.00,2.5226
770.50,2.5279
770.00,2.5259
769.50,2.5237
769.00,2.5262
768.50,2.5262
768.00,2.5217
767.50,2.5238
767.00,2.5365
766.50,2.5456
766.00,2.5412
765.50,2.5345
765.00,2.5358
764.50,2.5384
764.00,2.5352
763.50,2.5326
763.00,2.5341
762.50,2.5303
762.00,2.5182
761.50,2.5099
761.00,2.5133
760.50,2.5193
760.00,2.5192
759.50,2.5190
759.00,2.5232
758.50,2.5240
758.00,2.5176
757.50,2.5145
757.00,2.5215
756.50,2.5285
756.00,2.5273
755.50,2.5256
755.00,2.5303
754.50,2.5347
754.00,2.5335
753.50,2.5337
753.00,2.5395
752.50,2.5419
752.00,2.5363
751.50,2.5319
751.00,2.5350
750.50,2.5371
750.00,2.5321
749.50,2.5285
749.00,2.5332
748.50,2.5380
748.00,2.5351
747.50,2.5309
747.00,2.5322
746.50,2.5348
746.00,2.5356
745.50,2.5400
745.00,2.5502
744.50,2.5565
744.00,2.5523
743.50,2.5467
743.00,2.5476
742.50,2.5489
742.00,2.5450
741.50,2.5418
741.00,2.5442
740.50,2.5459
740.00,2.5426
739.50,2.5419
739.00,2.5474
738.50,2.5503
738.00,2.5454
737.50,2.5411
737.00,2.5425
736.50,2.5423
736.00,2.5359
735.50,2.5324
735.00,2.5384
734.50,2.5448
734.00,2.5446
733.50,2.5440
733.00,2.5479
732.50,2.5502
732.00,2.5467
731.50,2.5461
731.00,2.5537
730.50,2.5589
730.00,2.5543
729.50,2.5493
729.00,2.5514
728.50,2.5519
728.00,2.5436
727.50,2.5339
727.00,2.5302
726.50,2.5281
726.00,2.5235
725.50,2.5224
725.00,2.5290
724.50,2.5360
724.00,2.5371
723.50,2.5371
723.00,2.5407
722.50,2.5413
722.00,2.5335
721.50,2.5273
721.00,2.5313
720.50,2.5389
720.00,2.5403
719.50,2.5390
719.00,2.5408
718.50,2.5406
718.00,2.5336
717.50,2.5268
717.00,2.5284
716.50,2.5360
716.00,2.5439
715.50,2.5521
715.00,2.5610
714.50,2.5636
714.00,2.5562
713.50,2.5488
713.00,2.5501
712.50,2.5547
712.00,2.5561
711.50,2.5580
711.00,2.5637
710.50,2.5663
710.00,2.5596
709.50,2.5508
709.00,2.5486
708.50,2.5517
708.00,2.5552
707.50,2.5613
707.00,2.5708
706.50,2.5749
706.00,2.5675
705.50,2.5558
705.00,2.5486
704.50,2.5448
704.00,2.5412
703.50,2.5421
703.00,2.5511
702.50,2.5609
702.00,2.5632
701.50,2.5617
701.00,2.5628
700.50,2.5629
700.00,2.5580
699.50,2.5519
699.00,2.5483
698.50,2.5463
698.00,2.5463
697.50,2.5512
697.00,2.5608
696.50,2.5667
696.00,2.5652
695.50,2.5648
695.00,2.5708
694.50,2.5768
694.00,2.5761
693.50,2.5721
693.00,2.5698
692.50,2.5667
692.00,2.5605
691.50,2.5557
691.00,2.5575
690.50,2.5609
690.00,2.5595
689.50,2.5595
689.00,2.5669
688.50,2.5760
688.00,2.5787
687.50,2.5760
687.00,2.5722
686.50,2.5653
686.00,2.5566
685.50,2.5545
685.00,2.5615
684.50,2.5690
684.00,2.5693
683.50,2.5673
683.00,2.5688
682.50,2.5684
682.00,2.5621
681.50,2.5575
681.00,2.5616
680.50,2.5695
680.00,2.5731
679.50,2.5723
679.00,2.5709
678.50,2.5686
678.00,2.5656
677.50,2.5663
677.00,2.5710
676.50,2.5721
676.00,2.5668
675.50,2.5631
675.00,2.5663
674.50,2.5709
674.00,2.5719
673.50,2.5733
673.00,2.5802
672.50,2.5884
672.00,2.5915
671.50,2.5914
671.00,2.5888
670.50,2.5782
670.00,2.5559
669.50,2.5285
669.00,2.5057
668.50,2.4968
668.00,2.5183
667.50,2.5512
667.00,2.5634
666.50,2.5606
666.00,2.5526
665.50,2.5472
665.00,2.5493
664.50,2.5549
664.00,2.5579
663.50,2.5590
663.00,2.5611
662.50,2.5637
662.00,2.5669
661.50,2.5708
661.00,2.5748
660.50,2.5748
660.00,2.5688
659.50,2.5625
659.00,2.5628
658.50,2.5673
658.00,2.5702
657.50,2.5714
657.00,2.5744
656.50,2.5800
656.00,2.5851
655.50,2.5894
655.00,2.5942
654.50,2.5953
654.00,2.5902
653.50,2.5820
653.00,2.5759
652.50,2.5727
652.00,2.5734
651.50,2.5823
651.00,2.5983
650.50,2.6106
650.00,2.6093
649.50,2.5983
649.00,2.5861
648.50,2.5773
648.00,2.5733
647.50,2.5730
647.00,2.5750
646.50,2.5763
646.00,2.5767
645.50,2.5805
645.00,2.5895
644.50,2.5978
644.00,2.5997
643.50,2.5947
643.00,2.5861
642.50,2.5761
642.00,2.5665
641.50,2.5619
641.00,2.5633
640.50,2.5657
640.00,2.5639
639.50,2.5593
639.00,2.5579
638.50,2.5633
638.00,2.5750
637.50,2.5877
637.00,2.5940
636.50,2.5945
636.00,2.5933
635.50,2.5919
635.00,2.5925
634.50,2.5917
634.00,2.5856
633.50,2.5788
633.00,2.5766
632.50,2.5782
632.00,2.5814
631.50,2.5859
631.00,2.5933
630.50,2.6018
630.00,2.6043
629.50,2.5987
629.00,2.5895
628.50,2.5831
628.00,2.5848
627.50,2.5933
627.00,2.6026
626.50,2.6064
626.00,2.6042
625.50,2.6008
625.00,2.5978
624.50,2.5908
624.00,2.5783
623.50,2.5659
623.00,2.5616
622.50,2.5685
622.00,2.5810
621.50,2.5899
621.00,2.5905
620.50,2.5854
620.00,2.5795
619.50,2.5754
619.00,2.5747
618.50,2.5787
618.00,2.5884
617.50,2.6028
617.00,2.6139
616.50,2.6160
616.00,2.6119
615.50,2.6038
615.00,2.5949
614.50,2.5871
614.00,2.5799
613.50,2.5754
613.00,2.5759
612.50,2.5832
612.00,2.5962
611.50,2.6104
611.00,2.6219
610.50,2.6283
610.00,2.6286
609.50,2.6239
609.00,2.6170
608.50,2.6096
608.00,2.6024
607.50,2.5951
607.00,2.5926
606.50,2.6001
606.00,2.6123
605.50,2.6097
605.00,2.5853
604.50,2.5556
604.00,2.5433
603.50,2.5576
603.00,2.5881
602.50,2.6142
602.00,2.6194
601.50,2.6057
601.00,2.5901
600.50,2.5913
600.00,2.6107
599.50,2.6215
599.00,2.6108
598.50,2.5938
598.00,2.5812
597.50,2.5701
597.00,2.5595
596.50,2.5565
596.00,2.5646
595.50,2.5807
595.00,2.5974
594.50,2.6061
594.00,2.6083
593.50,2.6068
593.00,2.6005
592.50,2.5936
592.00,2.5930
591.50,2.5994
591.00,2.6087
590.50,2.6156
590.00,2.6188
589.50,2.6174
589.00,2.6129
588.50,2.6116
588.00,2.6137
587.50,2.6118
587.00,2.6042
586.50,2.5994
586.00,2.6027
585.50,2.6085
585.00,2.6111
584.50,2.6130
584.00,2.6183
583.50,2.6267
583.00,2.6371
582.50,2.6451
582.00,2.6466
581.50,2.6389
581.00,2.6267
580.50,2.6201
580.00,2.6215
579.50,2.6239
579.00,2.6240
578.50,2.6280
578.00,2.6402
577.50,2.6502
577.00,2.6513
576.50,2.6531
576.00,2.6601
575.50,2.6577
575.00,2.6397
574.50,2.6204
574.00,2.6124
573.50,2.6138
573.00,2.6198
572.50,2.6296
572.00,2.6421
571.50,2.6521
571.00,2.6560
570.50,2.6602
570.00,2.6665
569.50,2.6648
569.00,2.6537
568.50,2.6448
568.00,2.6446
567.50,2.6471
567.00,2.6494
566.50,2.6555
566.00,2.6648
565.50,2.6657
565.00,2.6541
564.50,2.6429
564.00,2.6412
563.50,2.6376
563.00,2.6252
562.50,2.6206
562.00,2.6337
561.50,2.6532
561.00,2.6609
560.50,2.6557
560.00,2.6495
559.50,2.6414
559.00,2.6301
558.50,2.6241
558.00,2.6252
557.50,2.6229
557.00,2.6147
556.50,2.6145
556.00,2.6280
555.50,2.6399
555.00,2.6388
554.50,2.6321
554.00,2.6292
553.50,2.6228
553.00,2.6092
552.50,2.6053
552.00,2.6209
551.50,2.6404
551.00,2.6465
550.50,2.6457
550.00,2.6491
549.50,2.6466
549.00,2.6315
548.50,2.6228
548.00,2.6343
547.50,2.6539
547.00,2.6656
546.50,2.6693
546.00,2.6700
545.50,2.6604
545.00,2.6371
544.50,2.6192
544.00,2.6199
543.50,2.6250
543.00,2.6219
542.50,2.6240
542.00,2.6423
541.50,2.6621
541.00,2.6663
540.50,2.6622
540.00,2.6641
539.50,2.6651
539.00,2.6553
538.50,2.6434
538.00,2.6399
537.50,2.6362
537.00,2.6261
536.50,2.6228
536.00,2.6315
535.50,2.6327
535.00,2.6186
534.50,2.6120
534.00,2.6268
533.50,2.6422
533.00,2.6383
532.50,2.6287
532.00,2.6269
531.50,2.6233
531.00,2.6094
530.50,2.5982
530.00,2.6022
529.50,2.6068
529.00,2.5942
528.50,2.5771
528.00,2.5723
527.50,2.5747
527.00,2.5804
526.50,2.5968
526.00,2.6264
525.50,2.6458
525.00,2.6417
524.50,2.6458
524.00,2.6732
523.50,2.6900
523.00,2.6690
522.50,2.6377
522.00,2.6243
521.50,2.6132
521.00,2.5933
520.50,2.5865
520.00,2.6031
519.50,2.6175
519.00,2.6033
518.50,2.5835
518.00,2.5844
517.50,2.5887
517.00,2.5793
516.50,2.5740
516.00,2.5888
515.50,2.6063
515.00,2.6067
514.50,2.6015
514.00,2.6095
513.50,2.6178
513.00,2.6096
512.50,2.6024
512.00,2.6164
511.50,2.6333
511.00,2.6333
510.50,2.6350
510.00,2.6513
509.50,2.6567
509.00,2.6361
508.50,2.6232
508.00,2.6419
507.50,2.6595
507.00,2.6396
506.50,2.6188
506.00,2.6340
505.50,2.6540
505.00,2.6452
504.50,2.6329
504.00,2.6505
503.50,2.6817
503.00,2.6819
502.50,2.6656
502.00,2.6632
501.50,2.6497
501.00,2.6169
500.50,2.5957
500.00,2.6007
499.50,2.6070
499.00,2.5980
498.50,2.6019
498.00,2.6358
497.50,2.6599
497.00,2.6365
496.50,2.6033
496.00,2.6024
495.50,2.6174
495.00,2.6180
494.50,2.6256
494.00,2.6632
493.50,2.6903
493.00,2.6651
492.50,2.6267
492.00,2.6207
491.50,2.6292
491.00,2.6200
490.50,2.6148
490.00,2.6402
489.50,2.6701
489.00,2.6764
488.50,2.6834
488.00,2.7053
487.50,2.6976
487.00,2.6422
486.50,2.6007
486.00,2.6140
485.50,2.6583
485.00,2.6885
484.50,2.7028
484.00,2.7225
483.50,2.7157
483.00,2.6668
482.50,2.6350
482.00,2.6492
481.50,2.6595
481.00,2.6211
480.50,2.5819
480.00,2.5819
479.50,2.5902
479.00,2.5716
478.50,2.5597
478.00,2.5865
477.50,2.6097
477.00,2.5861
476.50,2.5596
476.00,2.5768
475.50,2.6098
475.00,2.6111
474.50,2.6095
474.00,2.6405
473.50,2.6515
473.00,2.5984
472.50,2.5495
472.00,2.5579
471.50,2.5785
471.00,2.5600
470.50,2.5427
470.00,2.5745
469.50,2.6162
469.00,2.6053
468.50,2.5769
468.00,2.5761
467.50,2.5849
467.00,2.5759
466.50,2.5783
466.00,2.6218
465.50,2.6461
465.00,2.5951
464.50,2.5436
464.00,2.5473
463.50,2.5747
463.00,2.5798
462.50,2.5861
462.00,2.6191
461.50,2.6238
461.00,2.5718
460.50,2.5408
460.00,2.5848
459.50,2.6507
459.00,2.6346
458.50,2.5836
458.00,2.6057
457.50,2.6567
457.00,2.6277
456.50,2.5861
456.00,2.5941
455.50,2.6057
455.00,2.5776
454.50,2.5638
454.00,2.6141
453.50,2.6586
453.00,2.6023
452.50,2.5378
452.00,2.5438
451.50,2.5660
451.00,2.5393
450.50,2.5098
450.00,2.5311
449.50,2.5626
449.00,2.5480
448.50,2.5293
448.00,2.5652
447.50,2.6188
447.00,2.5965
446.50,2.5431
446.00,2.5404
445.50,2.5539
445.00,2.5331
444.50,2.5301
444.00,2.5942
443.50,2.6591
443.00,2.6366
442.50,2.5894
442.00,2.6028
441.50,2.6502
441.00,2.6573
440.50,2.6634
440.00,2.7136
439.50,2.7165
439.00,2.6236
438.50,2.5627
438.00,2.5836
437.50,2.5978
437.00,2.5306
436.50,2.4824
436.00,2.5396
435.50,2.6431
435.00,2.6409
434.50,2.5758
434.00,2.5578
433.50,2.5562
433.00,2.5229
432.50,2.5138
432.00,2.5720
431.50,2.6134
431.00,2.5401
430.50,2.4760
430.00,2.5234
429.50,2.6308
429.00,2.6602
428.50,2.6346
428.00,2.6570
427.50,2.6700
427.00,2.5882
426.50,2.5173
426.00,2.5469
425.50,2.6068
425.00,2.5634
424.50,2.4953
424.00,2.4972
423.50,2.5043
423.00,2.4349
422.50,2.3849
422.00,2.4368
421.50,2.5328
421.00,2.5472
420.50,2.5139
420.00,2.5696
419.50,2.6764
419.00,2.5698
418.50,2.4527
418.00,2.4599
417.50,2.4561
417.00,2.3993
416.50,2.3807
416.00,2.4549
415.50,2.5588
415.00,2.5577
414.50,2.5189
414.00,2.5490
413.50,2.5709
413.00,2.4898
412.50,2.4176
412.00,2.4449
411.50,2.4978
411.00,2.4487
410.50,2.4035
410.00,2.4746
409.50,2.5670
409.00,2.5290
408.50,2.5029
408.00,2.6281
407.50,2.7826
407.00,2.5645
406.50,2.3390
406.00,2.2923
405.50,2.3250
405.00,2.2961
404.50,2.2514
404.00,2.3003
403.50,2.4234
403.00,2.4764
402.50,2.4305
402.00,2.4085
401.50,2.3803
401.00,2.2626
400.50,2.1557
400.00,2.1307
